GyroX,GyroY,GyroZ,AccX,AccY,AccZ
-0.013465648854961765,-0.005541984732826327,0.01542748091603205,0.004106079101562854,-0.0037467041015625015,0.9891250000000011
0.0170687022900764,-0.005541984732826327,0.007793893129772522,0.003861938476562854,-0.0052115478515625015,1.0010878906250011
0.009435114503816844,0.009725190839692754,0.01542748091603205,0.016313110351562854,0.0028450927734374985,1.0010878906250011
-0.00583206106870221,0.009725190839692754,0.00016030534351296755,-0.001020874023437146,-0.0044791259765625015,1.0059707031250011
0.009435114503816844,0.0020916030534331997,0.00016030534351296755,0.014359985351562854,0.00015954589843749853,1.0162246093750011
-0.00583206106870221,0.009725190839692754,0.00016030534351296755,0.001908813476562854,-0.010582641601562501,0.9959609375000011
0.0018015267175573446,-0.005541984732826327,0.007793893129772522,-0.004194702148437146,0.0026009521484374985,0.9962050781250011
-0.02109923664122132,0.009725190839692754,0.007793893129772522,-4.431152343714606e-05,0.0021126708984374985,1.0052382812500011
-0.00583206106870221,-0.013175572519085882,0.00016030534351296755,0.0006881103515628539,-0.009850219726562501,1.0027968750000011
-0.02109923664122132,0.0020916030534331997,0.007793893129772522,-4.431152343714606e-05,0.0030892333984374985,0.9964492187500011
0.0018015267175573446,-0.005541984732826327,0.01542748091603205,0.007524047851562854,0.0006478271484374985,0.9957167968750011
0.009435114503816844,0.009725190839692754,-0.015106870229006114,-4.431152343714606e-05,-0.0013052978515625015,0.9922988281250011
-0.00583206106870221,-0.005541984732826327,0.007793893129772522,0.00044396972656285394,0.00040368652343749853,1.0010878906250011
-0.00583206106870221,-0.013175572519085882,0.01542748091603205,0.00044396972656285394,0.0033333740234374985,1.0005996093750011
-0.00583206106870221,0.01735877862595228,0.01542748091603205,-0.010542358398437146,-0.0049674072265625015,1.0064589843750011
-0.00583206106870221,-0.013175572519085882,0.007793893129772522,0.001176391601562854,-0.0005728759765625015,0.9944960937500011
0.009435114503816844,-0.005541984732826327,0.00016030534351296755,-0.006636108398437146,-0.0044791259765625015,0.9991347656250011
0.009435114503816844,0.009725190839692754,0.00016030534351296755,-0.003950561523437146,0.0052864990234374985,0.9937636718750011
0.0018015267175573446,0.0020916030534331997,0.00016030534351296755,0.005326782226562854,-0.0013052978515625015,1.0015761718750011
0.0018015267175573446,-0.02080916030534541,0.007793893129772522,-0.012251342773437146,0.0033333740234374985,1.0023085937500011
-0.013465648854961765,0.009725190839692754,0.01542748091603205,-0.001020874023437146,0.0057747802734374985,0.9971816406250011
0.009435114503816844,-0.028442748091604964,0.00016030534351296755,0.004594360351562854,0.0006478271484374985,1.0047500000000011
-0.00583206106870221,0.009725190839692754,0.01542748091603205,0.004350219726562854,-0.0015494384765625015,0.9959609375000011
0.009435114503816844,0.0020916030534331997,0.007793893129772522,0.005082641601562854,0.0047982177734374985,0.9976699218750011
-0.00583206106870221,0.01735877862595228,-0.007473282442746559,0.001176391601562854,-8.459472656250147e-05,1.0032851562500011
-0.013465648854961765,0.0020916030534331997,0.007793893129772522,0.016313110351562854,0.0050423583984374985,1.0003554687500011
0.009435114503816844,0.009725190839692754,0.007793893129772522,0.00044396972656285394,0.0028450927734374985,0.9988906250000011
-0.013465648854961765,0.0020916030534331997,0.00016030534351296755,-0.012007202148437146,-0.008873657226562501,0.9993789062500011
-0.013465648854961765,-0.005541984732826327,-0.007473282442746559,0.003617797851562854,0.00015954589843749853,1.0198867187500011
-0.00583206106870221,0.009725190839692754,-0.007473282442746559,-0.002973999023437146,-0.0005728759765625015,0.9974257812500011
-0.02873282442748082,0.009725190839692754,0.00016030534351296755,-0.002729858398437146,-0.0010611572265625015,1.0198867187500011
-0.00583206106870221,-0.013175572519085882,0.00016030534351296755,-0.002485717773437146,-0.008873657226562501,1.0003554687500011
0.0018015267175573446,-0.005541984732826327,0.03069465648855113,0.004838500976562854,-0.0044791259765625015,0.9949843750000011
0.0018015267175573446,-0.02080916030534541,0.01542748091603205,0.001664672851562854,0.0170052490234375,1.0032851562500011
-0.02109923664122132,0.009725190839692754,0.01542748091603205,-0.002729858398437146,0.0023568115234374985,0.9984023437500011
0.0170687022900764,0.01735877862595228,0.01542748091603205,-0.010542358398437146,-0.0044791259765625015,1.0020644531250011
0.0170687022900764,0.0020916030534331997,0.00016030534351296755,-0.00028845214843714606,0.0006478271484374985,0.9927871093750011
-0.013465648854961765,0.01735877862595228,0.00016030534351296755,0.005815063476562854,0.009925170898437499,0.9962050781250011
0.0018015267175573446,-0.02080916030534541,0.00016030534351296755,-0.002241577148437146,-0.0010611572265625015,0.9991347656250011
0.0018015267175573446,-0.013175572519085882,0.03069465648855113,0.004838500976562854,-0.0069205322265625015,1.0001113281250011
0.0170687022900764,0.0020916030534331997,-0.007473282442746559,-0.011030639648437146,-0.0013052978515625015,1.0020644531250011
-0.013465648854961765,0.024992366412211836,-0.015106870229006114,0.002397094726562854,-0.0030142822265625015,0.9988906250000011
0.024702290076335953,-0.013175572519085882,0.01542748091603205,0.015336547851562854,-0.0013052978515625015,1.0005996093750011
0.0018015267175573446,0.009725190839692754,-0.015106870229006114,0.009965454101562854,-0.0054556884765625015,0.9947402343750011
0.009435114503816844,0.009725190839692754,0.023061068702291604,0.004594360351562854,-0.009606079101562501,0.9959609375000011
0.0018015267175573446,0.0020916030534331997,0.00016030534351296755,0.016068969726562854,0.0043099365234374985,0.9957167968750011
-0.00583206106870221,0.009725190839692754,0.03069465648855113,0.0006881103515628539,0.0008919677734374985,0.9962050781250011
-0.00583206106870221,-0.013175572519085882,-0.007473282442746559,-0.001265014648437146,-0.0037467041015625015,0.9991347656250011
-0.00583206106870221,0.009725190839692754,-0.015106870229006114,-0.001509155273437146,0.0065072021484374985,0.9942519531250011
0.0018015267175573446,0.009725190839692754,-0.007473282442746559,-4.431152343714606e-05,0.0021126708984374985,0.9954726562500011
-0.02109923664122132,0.0020916030534331997,0.00016030534351296755,-0.008589233398437146,0.0033333740234374985,0.9998671875000011
-0.00583206106870221,-0.013175572519085882,0.023061068702291604,0.002641235351562854,-0.0030142822265625015,0.9915664062500011
0.0018015267175573446,-0.013175572519085882,0.007793893129772522,0.001664672851562854,0.0043099365234374985,0.9898574218750011
-0.013465648854961765,-0.005541984732826327,0.00016030534351296755,-0.010054077148437146,0.014563842773437499,0.9959609375000011
0.0018015267175573446,-0.013175572519085882,-0.015106870229006114,-0.004682983398437146,-0.00032873535156250147,0.9937636718750011
-0.00583206106870221,0.01735877862595228,0.007793893129772522,-0.004194702148437146,-0.0020377197265625015,1.0003554687500011
0.0170687022900764,0.009725190839692754,0.01542748091603205,-0.001753295898437146,-0.0074088134765625015,1.0067031250000011
0.03233587786259551,-0.005541984732826327,0.03069465648855113,-0.001997436523437146,0.0047982177734374985,1.0032851562500011
-0.02109923664122132,-0.013175572519085882,0.007793893129772522,0.001420532226562854,0.0021126708984374985,1.0098769531250011
0.0170687022900764,-0.005541984732826327,0.007793893129772522,0.003373657226562854,-0.0059439697265625015,0.9969375000000011
0.009435114503816844,-0.02080916030534541,0.023061068702291604,0.00019982910156285394,-0.0061881103515625015,0.9979140625000011
0.0018015267175573446,-0.02080916030534541,-0.007473282442746559,-0.007368530273437146,0.0028450927734374985,0.9984023437500011
0.009435114503816844,0.0020916030534331997,0.01542748091603205,0.0009322509765628539,-0.0005728759765625015,1.0159804687500011
0.0018015267175573446,-0.005541984732826327,0.00016030534351296755,0.009721313476562854,0.0013802490234374985,0.9986464843750011
-0.00583206106870221,-0.005541984732826327,0.007793893129772522,-0.008589233398437146,0.0026009521484374985,1.0191542968750011
0.009435114503816844,0.009725190839692754,-0.007473282442746559,-0.0007767333984371461,0.0016243896484374985,0.9913222656250011
-0.013465648854961765,-0.005541984732826327,0.01542748091603205,0.005815063476562854,-0.0054556884765625015,0.9903457031250011
-0.00583206106870221,-0.005541984732826327,0.00016030534351296755,-4.431152343714606e-05,-0.0059439697265625015,0.9898574218750011
0.009435114503816844,0.0020916030534331997,0.00016030534351296755,0.012895141601562854,-0.0008170166015625015,1.0023085937500011
0.0170687022900764,0.0020916030534331997,0.00016030534351296755,-0.007612670898437146,-0.0010611572265625015,1.0020644531250011
0.0018015267175573446,0.024992366412211836,0.01542748091603205,0.004106079101562854,0.0006478271484374985,1.0037734375000011
0.009435114503816844,0.0020916030534331997,0.01542748091603205,-0.011763061523437146,-0.0010611572265625015,0.9896132812500011
-0.00583206106870221,0.009725190839692754,0.007793893129772522,0.0009322509765628539,0.0011361083984374985,1.0035292968750011
-0.013465648854961765,-0.005541984732826327,-0.007473282442746559,-0.0005325927734371461,-0.0008170166015625015,1.0027968750000011
0.0018015267175573446,0.01735877862595228,0.007793893129772522,0.00019982910156285394,0.0008919677734374985,1.0172011718750011
-0.00583206106870221,-0.02080916030534541,0.01542748091603205,-0.007856811523437146,0.0021126708984374985,1.0020644531250011
0.0018015267175573446,0.0020916030534331997,0.007793893129772522,0.016557250976562854,0.0008919677734374985,1.0086562500000011
-0.013465648854961765,0.0020916030534331997,-0.015106870229006114,0.004350219726562854,-0.0054556884765625015,0.9971816406250011
0.0018015267175573446,-0.02080916030534541,0.00016030534351296755,0.0006881103515628539,0.0006478271484374985,0.9969375000000011
0.0018015267175573446,0.009725190839692754,-0.02274045801526564,0.017045532226562854,0.0033333740234374985,1.0189101562500011
0.0170687022900764,-0.005541984732826327,-0.015106870229006114,0.002397094726562854,-0.0037467041015625015,0.9966933593750011
0.03233587786259551,-0.005541984732826327,-0.007473282442746559,-0.002485717773437146,-0.0061881103515625015,1.0025527343750011
-0.013465648854961765,-0.013175572519085882,0.01542748091603205,-0.005171264648437146,0.0011361083984374985,1.0005996093750011
0.009435114503816844,-0.005541984732826327,0.023061068702291604,-0.003218139648437146,-0.0017935791015625015,1.0123183593750011
-0.00583206106870221,-0.005541984732826327,0.007793893129772522,-0.012495483398437146,-8.459472656250147e-05,0.9932753906250011
0.0018015267175573446,-0.03607633587786449,0.007793893129772522,-4.431152343714606e-05,-0.0013052978515625015,0.9986464843750011
-0.02109923664122132,0.009725190839692754,0.03069465648855113,-0.0007767333984371461,-0.0020377197265625015,1.0020644531250011
0.009435114503816844,0.009725190839692754,0.01542748091603205,-0.012251342773437146,-0.00032873535156250147,0.9962050781250011
0.0170687022900764,0.01735877862595228,0.01542748091603205,-0.003706420898437146,-0.0010611572265625015,1.0054824218750011
0.024702290076335953,0.0020916030534331997,0.01542748091603205,0.001664672851562854,-0.0032584228515625015,0.9925429687500011
0.009435114503816844,-0.013175572519085882,0.00016030534351296755,0.012895141601562854,0.0006478271484374985,0.9947402343750011
0.0018015267175573446,-0.005541984732826327,0.00016030534351296755,-0.003706420898437146,-0.0076529541015625015,0.9937636718750011
-0.00583206106870221,0.0020916030534331997,-0.007473282442746559,-0.004682983398437146,-8.459472656250147e-05,0.9947402343750011
-0.013465648854961765,0.0020916030534331997,0.007793893129772522,-0.012251342773437146,-0.0013052978515625015,0.9922988281250011
-0.013465648854961765,-0.013175572519085882,0.00016030534351296755,0.016801391601562854,0.0043099365234374985,0.9981582031250011
0.0018015267175573446,-0.02080916030534541,0.00016030534351296755,0.003129516601562854,0.0026009521484374985,1.0040175781250011
0.0018015267175573446,-0.005541984732826327,0.023061068702291604,0.002397094726562854,-0.0076529541015625015,0.9927871093750011
-0.02109923664122132,-0.005541984732826327,0.023061068702291604,-4.431152343714606e-05,0.00040368652343749853,1.0047500000000011
-0.013465648854961765,0.0020916030534331997,0.007793893129772522,0.017533813476562854,0.0028450927734374985,0.9925429687500011
0.0018015267175573446,-0.013175572519085882,0.00016030534351296755,-0.003218139648437146,-0.0069205322265625015,0.9913222656250011
0.0170687022900764,-0.013175572519085882,0.00016030534351296755,0.002152954101562854,-0.0042349853515625015,1.0013320312500011
0.009435114503816844,0.0020916030534331997,0.00016030534351296755,0.003861938476562854,-0.009850219726562501,0.9893691406250011
0.0018015267175573446,0.01735877862595228,0.007793893129772522,-0.003950561523437146,-0.0010611572265625015,1.0059707031250011
0.0018015267175573446,-0.013175572519085882,0.00016030534351296755,-0.002973999023437146,-8.459472656250147e-05,0.9979140625000011
0.009435114503816844,0.009725190839692754,0.00016030534351296755,-0.001997436523437146,0.0026009521484374985,1.0013320312500011
-0.013465648854961765,-0.005541984732826327,0.007793893129772522,0.005082641601562854,0.0013802490234374985,0.9979140625000011
-0.013465648854961765,-0.005541984732826327,0.007793893129772522,0.016068969726562854,-0.0074088134765625015,0.9974257812500011
0.009435114503816844,0.01735877862595228,0.023061068702291604,0.015092407226562854,0.0028450927734374985,1.0027968750000011
0.0018015267175573446,-0.028442748091604964,0.00016030534351296755,0.017289672851562854,-0.0037467041015625015,1.0159804687500011
-0.013465648854961765,0.009725190839692754,0.007793893129772522,0.001664672851562854,-0.0022818603515625015,1.0040175781250011
-0.02873282442748082,-0.005541984732826327,0.007793893129772522,0.0006881103515628539,0.008216186523437499,0.9949843750000011
-0.00583206106870221,0.01735877862595228,0.01542748091603205,0.004106079101562854,-0.0017935791015625015,0.9991347656250011
0.0018015267175573446,-0.005541984732826327,0.01542748091603205,-0.010054077148437146,-0.0025260009765625015,1.0001113281250011
0.0018015267175573446,0.009725190839692754,0.023061068702291604,-0.001020874023437146,-8.459472656250147e-05,1.0176894531250011
0.009435114503816844,-0.013175572519085882,0.023061068702291604,-0.0005325927734371461,-0.0052115478515625015,0.9962050781250011
-0.00583206106870221,0.024992366412211836,0.01542748091603205,0.010697875976562854,-0.0076529541015625015,0.9969375000000011
-0.00583206106870221,-0.028442748091604964,0.007793893129772522,-0.0007767333984371461,0.0030892333984374985,1.0186660156250011
0.024702290076335953,-0.013175572519085882,-0.007473282442746559,-0.003462280273437146,0.0011361083984374985,1.0013320312500011
-0.00583206106870221,0.009725190839692754,0.00016030534351296755,-4.431152343714606e-05,0.0060189208984374985,1.0018203125000011
-0.00583206106870221,-0.013175572519085882,0.00016030534351296755,-4.431152343714606e-05,-0.0074088134765625015,1.0027968750000011
-0.02873282442748082,0.03262595419847139,0.00016030534351296755,-0.012739624023437146,-0.0030142822265625015,1.0018203125000011
-0.00583206106870221,0.0020916030534331997,-0.02274045801526564,-0.003950561523437146,-0.0010611572265625015,1.0025527343750011
-0.00583206106870221,-0.005541984732826327,-0.007473282442746559,0.00019982910156285394,0.0021126708984374985,0.9937636718750011
0.0018015267175573446,-0.005541984732826327,0.007793893129772522,0.016801391601562854,0.00015954589843749853,0.9920546875000011
0.0018015267175573446,0.024992366412211836,0.007793893129772522,-0.003462280273437146,0.0038216552734374985,1.0032851562500011
0.009435114503816844,0.009725190839692754,0.00016030534351296755,-0.003218139648437146,-0.0030142822265625015,0.9993789062500011
0.0170687022900764,0.01735877862595228,0.007793893129772522,0.012406860351562854,0.0016243896484374985,0.9949843750000011
-0.00583206106870221,-0.02080916030534541,0.007793893129772522,-0.001265014648437146,0.0016243896484374985,1.0035292968750011
0.009435114503816844,0.0020916030534331997,-0.007473282442746559,0.013383422851562854,0.0006478271484374985,1.0003554687500011
-0.013465648854961765,0.0020916030534331997,0.01542748091603205,-0.001020874023437146,-0.010094360351562501,0.9962050781250011
0.0018015267175573446,0.01735877862595228,0.023061068702291604,-0.003462280273437146,-0.00032873535156250147,1.0027968750000011
0.0018015267175573446,-0.02080916030534541,0.01542748091603205,0.017045532226562854,0.0016243896484374985,1.0032851562500011
-0.00583206106870221,0.009725190839692754,0.007793893129772522,0.004106079101562854,-0.0020377197265625015,1.0142714843750011
0.0018015267175573446,-0.005541984732826327,0.01542748091603205,-0.004438842773437146,-0.0015494384765625015,0.9984023437500011
0.0018015267175573446,-0.02080916030534541,-0.007473282442746559,0.001176391601562854,0.0013802490234374985,1.0167128906250011
-0.013465648854961765,0.01735877862595228,0.01542748091603205,-0.0005325927734371461,0.0028450927734374985,0.9940078125000011
0.0018015267175573446,0.01735877862595228,0.01542748091603205,-0.003218139648437146,-0.0008170166015625015,1.0003554687500011
0.0018015267175573446,0.009725190839692754,0.00016030534351296755,-0.002485717773437146,-8.459472656250147e-05,1.0045058593750011
0.009435114503816844,-0.005541984732826327,0.007793893129772522,0.001908813476562854,0.0194466552734375,0.9981582031250011
0.0170687022900764,-0.013175572519085882,-0.007473282442746559,-0.001753295898437146,-0.0047232666015625015,1.0032851562500011
-0.013465648854961765,0.009725190839692754,0.007793893129772522,0.007279907226562854,-0.0022818603515625015,0.9984023437500011
0.009435114503816844,-0.013175572519085882,0.00016030534351296755,0.002397094726562854,0.0013802490234374985,1.0198867187500011
0.009435114503816844,-0.005541984732826327,-0.007473282442746559,0.002885375976562854,-0.008385375976562501,0.9984023437500011
0.0018015267175573446,-0.005541984732826327,0.007793893129772522,0.002152954101562854,0.0021126708984374985,0.9957167968750011
0.009435114503816844,0.0020916030534331997,-0.015106870229006114,-0.003218139648437146,-0.00032873535156250147,1.0020644531250011
0.0170687022900764,0.01735877862595228,-0.007473282442746559,0.002885375976562854,0.0008919677734374985,0.9959609375000011
-0.013465648854961765,0.009725190839692754,0.00016030534351296755,0.001664672851562854,-0.0027701416015625015,0.9986464843750011
-0.00583206106870221,0.01735877862595228,0.023061068702291604,-0.005659545898437146,-0.0047232666015625015,0.9944960937500011
0.0018015267175573446,-0.013175572519085882,0.023061068702291604,-0.002485717773437146,0.00040368652343749853,1.0005996093750011
0.0018015267175573446,0.009725190839692754,0.03069465648855113,0.00044396972656285394,0.00040368652343749853,1.0015761718750011
0.0018015267175573446,-0.005541984732826327,0.03832824427481066,-0.003706420898437146,0.0028450927734374985,0.9903457031250011
-0.00583206106870221,-0.005541984732826327,0.023061068702291604,-0.004682983398437146,-0.007897094726562501,0.9979140625000011
-0.00583206106870221,0.01735877862595228,0.007793893129772522,-0.006391967773437146,0.0040657958984374985,0.9952285156250011
-0.00583206106870221,0.0020916030534331997,-0.007473282442746559,-0.001020874023437146,0.00015954589843749853,0.9979140625000011
-0.013465648854961765,0.0020916030534331997,0.00016030534351296755,-0.001753295898437146,0.0038216552734374985,0.9976699218750011
0.0018015267175573446,0.03262595419847139,0.01542748091603205,0.002152954101562854,0.013098999023437499,0.9988906250000011
-0.00583206106870221,-0.005541984732826327,0.007793893129772522,0.003861938476562854,-0.0010611572265625015,0.9976699218750011
0.0018015267175573446,-0.005541984732826327,-0.007473282442746559,0.0006881103515628539,-8.459472656250147e-05,1.0040175781250011
0.03233587786259551,0.0020916030534331997,0.01542748091603205,0.005570922851562854,-0.0025260009765625015,1.0008437500000011
-0.02109923664122132,-0.013175572519085882,-0.015106870229006114,0.00044396972656285394,0.0194466552734375,1.0032851562500011
0.009435114503816844,-0.02080916030534541,0.01542748091603205,-0.001753295898437146,0.0016243896484374985,1.0189101562500011
0.0018015267175573446,0.009725190839692754,0.00016030534351296755,0.005326782226562854,0.00040368652343749853,0.9998671875000011
0.009435114503816844,0.009725190839692754,0.01542748091603205,0.015824829101562854,-0.0044791259765625015,1.0052382812500011
0.009435114503816844,-0.005541984732826327,0.00016030534351296755,-4.431152343714606e-05,-0.0015494384765625015,0.9986464843750011
-0.00583206106870221,0.0020916030534331997,0.007793893129772522,-0.001753295898437146,0.00040368652343749853,0.9969375000000011
0.0018015267175573446,0.009725190839692754,0.00016030534351296755,-0.001753295898437146,-0.0025260009765625015,0.9996230468750011
0.0170687022900764,0.0020916030534331997,-0.007473282442746559,0.014359985351562854,-0.0037467041015625015,1.0037734375000011
0.0018015267175573446,-0.02080916030534541,0.00016030534351296755,0.002397094726562854,-0.0025260009765625015,0.9952285156250011
-0.013465648854961765,0.0020916030534331997,0.00016030534351296755,-0.004438842773437146,-0.009850219726562501,0.9944960937500011
-0.013465648854961765,0.0020916030534331997,-0.015106870229006114,-0.004682983398437146,0.0023568115234374985,1.0059707031250011
-0.00583206106870221,0.0020916030534331997,0.007793893129772522,-0.002241577148437146,0.0043099365234374985,0.9988906250000011
0.009435114503816844,-0.005541984732826327,0.007793893129772522,0.004594360351562854,0.0011361083984374985,0.9981582031250011
0.009435114503816844,0.009725190839692754,0.007793893129772522,0.015580688476562854,0.0011361083984374985,1.0037734375000011
0.0018015267175573446,0.0020916030534331997,0.00016030534351296755,-0.005171264648437146,0.0006478271484374985,1.0198867187500011
0.0018015267175573446,-0.005541984732826327,0.00016030534351296755,-0.002241577148437146,-0.0047232666015625015,1.0076796875000011
0.0018015267175573446,0.01735877862595228,0.00016030534351296755,0.017289672851562854,-0.0042349853515625015,1.0032851562500011
-0.013465648854961765,-0.005541984732826327,0.023061068702291604,0.00044396972656285394,-0.0044791259765625015,0.9952285156250011
-0.00583206106870221,0.0020916030534331997,0.01542748091603205,-0.001265014648437146,-0.0030142822265625015,0.9976699218750011
-0.013465648854961765,0.0020916030534331997,0.007793893129772522,-0.003218139648437146,-0.0039908447265625015,1.0067031250000011
0.0018015267175573446,-0.005541984732826327,0.01542748091603205,0.016313110351562854,-0.0032584228515625015,1.0010878906250011
0.009435114503816844,0.009725190839692754,0.00016030534351296755,0.001908813476562854,0.0077279052734374985,0.9937636718750011
0.009435114503816844,0.01735877862595228,0.01542748091603205,0.002397094726562854,0.0035775146484374985,0.9991347656250011
-0.013465648854961765,-0.013175572519085882,0.00016030534351296755,0.016801391601562854,-0.0010611572265625015,0.9971816406250011
0.024702290076335953,0.0020916030534331997,0.00016030534351296755,-0.012495483398437146,-0.007897094726562501,0.9998671875000011
0.009435114503816844,-0.005541984732826327,0.01542748091603205,0.003617797851562854,0.013098999023437499,1.0025527343750011
-0.013465648854961765,-0.03607633587786449,0.023061068702291604,-0.001753295898437146,-0.0010611572265625015,0.9896132812500011
0.009435114503816844,0.01735877862595228,0.01542748091603205,0.00044396972656285394,-0.0010611572265625015,1.0059707031250011
-0.013465648854961765,-0.005541984732826327,0.03832824427481066,-0.003462280273437146,-0.0066763916015625015,0.9998671875000011
-0.013465648854961765,-0.013175572519085882,-0.007473282442746559,0.014604125976562854,0.0016243896484374985,0.9957167968750011
-0.00583206106870221,0.0020916030534331997,0.007793893129772522,-0.00028845214843714606,-0.008141235351562501,1.0008437500000011
-0.00583206106870221,0.009725190839692754,0.007793893129772522,-0.004927124023437146,-0.0010611572265625015,0.9908339843750011
0.0018015267175573446,0.0020916030534331997,0.007793893129772522,-0.002241577148437146,0.0023568115234374985,1.0027968750000011
-0.013465648854961765,0.024992366412211836,-0.007473282442746559,0.011918579101562854,0.0018685302734374985,0.9998671875000011
-0.02109923664122132,-0.03607633587786449,0.01542748091603205,0.009965454101562854,-0.0054556884765625015,0.9910781250000011
-0.00583206106870221,0.01735877862595228,0.01542748091603205,-0.001753295898437146,-0.0025260009765625015,1.0013320312500011
0.0018015267175573446,-0.005541984732826327,0.007793893129772522,0.015336547851562854,0.00040368652343749853,1.0047500000000011
0.009435114503816844,-0.005541984732826327,0.00016030534351296755,-0.003218139648437146,-0.0030142822265625015,1.0035292968750011
-0.013465648854961765,0.0020916030534331997,-0.007473282442746559,-0.0007767333984371461,-0.009606079101562501,0.9981582031250011
0.0018015267175573446,0.0020916030534331997,0.03069465648855113,0.002152954101562854,-0.0032584228515625015,0.9932753906250011
0.009435114503816844,-0.013175572519085882,0.01542748091603205,0.007768188476562854,0.0047982177734374985,1.0096328125000011
0.0018015267175573446,0.009725190839692754,0.007793893129772522,-0.001509155273437146,-0.0030142822265625015,0.9908339843750011
0.009435114503816844,0.009725190839692754,-0.02274045801526564,-0.003218139648437146,-0.0005728759765625015,0.9971816406250011
0.0170687022900764,-0.005541984732826327,-0.015106870229006114,-0.013227905273437146,0.0026009521484374985,1.0118300781250011
0.024702290076335953,0.01735877862595228,0.00016030534351296755,-0.011274780273437146,-0.0015494384765625015,1.0035292968750011
-0.00583206106870221,0.009725190839692754,0.023061068702291604,-0.001997436523437146,0.0182259521484375,0.9964492187500011
0.0170687022900764,0.0020916030534331997,-0.007473282442746559,-0.001509155273437146,-0.0017935791015625015,0.9952285156250011
0.0018015267175573446,0.009725190839692754,0.00016030534351296755,0.006303344726562854,0.0052864990234374985,1.0013320312500011
-0.00583206106870221,-0.005541984732826327,0.01542748091603205,-0.003218139648437146,0.0038216552734374985,1.0040175781250011
0.0170687022900764,-0.02080916030534541,0.01542748091603205,0.00019982910156285394,0.0008919677734374985,1.0032851562500011
-0.02109923664122132,0.024992366412211836,0.00016030534351296755,0.004594360351562854,-0.0010611572265625015,0.9993789062500011
-0.00583206106870221,0.01735877862595228,0.00016030534351296755,-0.012251342773437146,-0.0037467041015625015,1.0049941406250011
-0.00583206106870221,0.0020916030534331997,0.01542748091603205,-0.006147827148437146,-0.0013052978515625015,1.0176894531250011
0.0170687022900764,0.0020916030534331997,0.01542748091603205,-0.00028845214843714606,0.0011361083984374985,0.9988906250000011
-0.00583206106870221,0.009725190839692754,0.007793893129772522,0.013139282226562854,-0.0047232666015625015,0.9952285156250011
-0.00583206106870221,0.0020916030534331997,-0.007473282442746559,-0.0007767333984371461,0.0023568115234374985,1.0164687500000011
0.009435114503816844,-0.013175572519085882,0.023061068702291604,-0.005171264648437146,-0.0042349853515625015,0.9964492187500011
-0.02109923664122132,0.0020916030534331997,0.00016030534351296755,-0.011518920898437146,-0.0059439697265625015,0.9962050781250011
-0.013465648854961765,-0.005541984732826327,0.01542748091603205,0.00019982910156285394,0.0160286865234375,0.9986464843750011
-0.013465648854961765,0.01735877862595228,0.01542748091603205,-0.013227905273437146,-0.009606079101562501,0.9986464843750011
0.0170687022900764,-0.005541984732826327,-0.007473282442746559,0.015336547851562854,0.0008919677734374985,1.0159804687500011
-0.00583206106870221,0.009725190839692754,0.00016030534351296755,0.003861938476562854,0.0023568115234374985,1.0001113281250011
-0.00583206106870221,-0.013175572519085882,-0.007473282442746559,-0.0007767333984371461,0.0026009521484374985,0.9969375000000011
0.0018015267175573446,0.0020916030534331997,-0.007473282442746559,0.001908813476562854,-0.0015494384765625015,1.0003554687500011
-0.00583206106870221,-0.02080916030534541,0.01542748091603205,-0.007856811523437146,-0.00032873535156250147,1.0030410156250011
0.009435114503816844,0.0020916030534331997,0.007793893129772522,-0.004438842773437146,-0.0022818603515625015,1.0015761718750011
-0.00583206106870221,0.0020916030534331997,0.01542748091603205,0.004350219726562854,0.00015954589843749853,1.0167128906250011
-0.00583206106870221,0.0020916030534331997,-0.02274045801526564,-0.003706420898437146,0.00040368652343749853,1.0172011718750011
-0.013465648854961765,-0.005541984732826327,-0.007473282442746559,-0.00028845214843714606,-0.0020377197265625015,1.0076796875000011
0.009435114503816844,-0.005541984732826327,-0.007473282442746559,-0.003462280273437146,-0.0049674072265625015,0.9971816406250011
0.0018015267175573446,-0.02080916030534541,0.03069465648855113,-0.001265014648437146,0.0021126708984374985,0.9996230468750011
-0.03636641221374037,0.009725190839692754,0.01542748091603205,0.003129516601562854,0.0074837646484374985,1.0027968750000011
0.009435114503816844,0.009725190839692754,-0.007473282442746559,0.0009322509765628539,0.0016243896484374985,1.0052382812500011
-0.00583206106870221,-0.05134351145038357,0.00016030534351296755,-0.0007767333984371461,0.00015954589843749853,0.9932753906250011
-0.00583206106870221,0.0020916030534331997,0.007793893129772522,0.001420532226562854,0.0016243896484374985,1.0008437500000011
0.0018015267175573446,-0.013175572519085882,0.00016030534351296755,-0.012983764648437146,0.0060189208984374985,1.0025527343750011
0.03233587786259551,-0.013175572519085882,0.03069465648855113,0.0006881103515628539,0.0016243896484374985,1.0186660156250011
-0.013465648854961765,0.009725190839692754,0.007793893129772522,0.002152954101562854,-0.0071646728515625015,1.0057265625000011
0.009435114503816844,0.024992366412211836,0.00016030534351296755,-0.001265014648437146,-0.0010611572265625015,1.0025527343750011
-0.013465648854961765,-0.005541984732826327,-0.007473282442746559,-0.0005325927734371461,-0.0037467041015625015,1.0040175781250011
0.0018015267175573446,-0.013175572519085882,-0.007473282442746559,-0.007612670898437146,0.0040657958984374985,1.0113417968750011
0.009435114503816844,0.009725190839692754,-0.007473282442746559,0.0009322509765628539,-0.0010611572265625015,0.9949843750000011
0.009435114503816844,-0.03607633587786449,-0.015106870229006114,0.0006881103515628539,-0.009606079101562501,1.0047500000000011
0.009435114503816844,0.024992366412211836,0.007793893129772522,0.0009322509765628539,-0.0020377197265625015,1.0181777343750011
-0.00583206106870221,-0.005541984732826327,0.023061068702291604,0.003373657226562854,0.0006478271484374985,1.0128066406250011
-0.00583206106870221,-0.013175572519085882,-0.015106870229006114,-0.0007767333984371461,-0.0005728759765625015,1.0018203125000011
0.0018015267175573446,-0.02080916030534541,0.00016030534351296755,-0.001265014648437146,0.0028450927734374985,0.9988906250000011
0.0018015267175573446,0.0020916030534331997,0.007793893129772522,-0.001509155273437146,-0.0039908447265625015,0.9981582031250011
-0.013465648854961765,0.01735877862595228,0.023061068702291604,-0.012495483398437146,0.0038216552734374985,1.0184218750000011
0.0170687022900764,0.0020916030534331997,0.01542748091603205,0.001908813476562854,-0.0005728759765625015,1.0030410156250011
0.009435114503816844,-0.028442748091604964,0.023061068702291604,-0.012983764648437146,-0.0005728759765625015,0.9918105468750011
0.009435114503816844,-0.013175572519085882,0.007793893129772522,0.014359985351562854,0.0060189208984374985,0.9991347656250011
-0.00583206106870221,0.01735877862595228,0.00016030534351296755,0.001420532226562854,0.0035775146484374985,1.0023085937500011
-0.02109923664122132,0.0020916030534331997,-0.007473282442746559,0.015092407226562854,-0.0035025634765625015,0.9986464843750011
0.009435114503816844,0.009725190839692754,0.007793893129772522,0.002885375976562854,0.0023568115234374985,1.0023085937500011
-0.00583206106870221,0.009725190839692754,0.007793893129772522,0.00019982910156285394,0.0021126708984374985,0.9959609375000011
-0.013465648854961765,0.01735877862595228,0.007793893129772522,0.00019982910156285394,-0.0008170166015625015,0.9920546875000011
0.009435114503816844,-0.013175572519085882,0.007793893129772522,0.002885375976562854,-0.0010611572265625015,0.9957167968750011
0.009435114503816844,0.01735877862595228,-0.007473282442746559,-0.012983764648437146,-0.00032873535156250147,0.9969375000000011
0.0018015267175573446,-0.013175572519085882,-0.007473282442746559,-0.008833374023437146,0.0062630615234374985,1.0001113281250011
0.0170687022900764,-0.02080916030534541,-0.007473282442746559,-0.002729858398437146,0.0016243896484374985,0.9991347656250011
0.0170687022900764,-0.005541984732826327,0.00016030534351296755,-0.002973999023437146,-0.0052115478515625015,1.0008437500000011
0.0018015267175573446,0.0020916030534331997,0.007793893129772522,-4.431152343714606e-05,0.00015954589843749853,0.9976699218750011
0.0018015267175573446,0.0020916030534331997,-0.007473282442746559,-0.001020874023437146,0.0172493896484375,1.0030410156250011
0.0018015267175573446,-0.005541984732826327,-0.007473282442746559,0.003129516601562854,-8.459472656250147e-05,0.9984023437500011
0.009435114503816844,-0.028442748091604964,0.007793893129772522,0.001176391601562854,0.0043099365234374985,1.0018203125000011
-0.02109923664122132,0.01735877862595228,0.01542748091603205,0.0006881103515628539,-0.0022818603515625015,0.9944960937500011
-0.00583206106870221,-0.005541984732826327,-0.007473282442746559,0.001420532226562854,0.0182259521484375,1.0001113281250011
0.0018015267175573446,0.0020916030534331997,0.007793893129772522,-0.001020874023437146,-0.0010611572265625015,1.0035292968750011
0.009435114503816844,-0.02080916030534541,0.01542748091603205,0.0009322509765628539,-0.00032873535156250147,1.0037734375000011
0.0018015267175573446,0.009725190839692754,0.00016030534351296755,-0.002729858398437146,-0.0017935791015625015,1.0008437500000011
0.009435114503816844,-0.005541984732826327,0.00016030534351296755,-0.010298217773437146,0.0018685302734374985,1.0040175781250011
-0.013465648854961765,-0.005541984732826327,0.00016030534351296755,-0.003218139648437146,-8.459472656250147e-05,0.9998671875000011
-0.02109923664122132,-0.005541984732826327,0.007793893129772522,-0.0005325927734371461,0.0045540771484374985,1.0069472656250011
0.0170687022900764,0.0020916030534331997,0.00016030534351296755,-0.002973999023437146,-0.0017935791015625015,0.9976699218750011
0.0018015267175573446,0.024992366412211836,0.007793893129772522,-0.00028845214843714606,-0.0020377197265625015,1.0015761718750011
0.0018015267175573446,-0.02080916030534541,0.007793893129772522,-4.431152343714606e-05,0.0016243896484374985,0.9979140625000011
-0.00583206106870221,0.009725190839692754,0.01542748091603205,-0.004682983398437146,0.011878295898437499,1.0020644531250011
-0.00583206106870221,-0.005541984732826327,0.00016030534351296755,-0.002973999023437146,0.0187142333984375,0.9981582031250011
-0.00583206106870221,-0.013175572519085882,0.007793893129772522,-0.001020874023437146,0.0033333740234374985,0.9957167968750011
0.009435114503816844,0.0020916030534331997,0.01542748091603205,0.001664672851562854,-0.00032873535156250147,0.9991347656250011
0.0018015267175573446,0.009725190839692754,0.00016030534351296755,0.017533813476562854,0.0006478271484374985,1.0045058593750011
-0.00583206106870221,-0.005541984732826327,-0.007473282442746559,0.013871704101562854,-0.0030142822265625015,1.0005996093750011
-0.00583206106870221,0.0020916030534331997,0.00016030534351296755,-0.00028845214843714606,0.0016243896484374985,1.0057265625000011
0.03233587786259551,-0.005541984732826327,0.00016030534351296755,-0.001997436523437146,0.0030892333984374985,1.0030410156250011
0.024702290076335953,0.0020916030534331997,0.03069465648855113,0.00044396972656285394,-0.0030142822265625015,1.0047500000000011
-0.013465648854961765,-0.005541984732826327,0.007793893129772522,-0.001509155273437146,0.0016243896484374985,0.9984023437500011
0.0018015267175573446,-0.013175572519085882,0.007793893129772522,0.0006881103515628539,-0.00032873535156250147,0.9893691406250011
-0.02873282442748082,0.0020916030534331997,-0.015106870229006114,0.003373657226562854,-0.0005728759765625015,0.9981582031250011
0.0170687022900764,-0.005541984732826327,0.00016030534351296755,-0.002241577148437146,-0.0054556884765625015,0.9991347656250011
-0.00583206106870221,0.009725190839692754,-0.007473282442746559,-0.001265014648437146,-0.0015494384765625015,0.9998671875000011
0.0170687022900764,0.009725190839692754,-0.015106870229006114,-0.009077514648437146,-0.010094360351562501,0.9957167968750011
0.0018015267175573446,0.009725190839692754,0.023061068702291604,-0.003462280273437146,0.0065072021484374985,1.0001113281250011
0.0018015267175573446,-0.005541984732826327,0.00016030534351296755,-0.002241577148437146,0.0030892333984374985,0.9993789062500011
-0.00583206106870221,0.009725190839692754,0.00016030534351296755,-0.002241577148437146,0.0006478271484374985,1.0172011718750011
0.0018015267175573446,0.009725190839692754,-0.007473282442746559,-0.012739624023437146,-0.00032873535156250147,1.0169570312500011
0.009435114503816844,-0.013175572519085882,-0.015106870229006114,-0.002729858398437146,-0.0020377197265625015,1.0040175781250011
0.009435114503816844,0.024992366412211836,0.01542748091603205,-0.002485717773437146,-0.0042349853515625015,0.9991347656250011
0.0018015267175573446,-0.005541984732826327,0.00016030534351296755,-0.0005325927734371461,-8.459472656250147e-05,0.9959609375000011
0.0018015267175573446,0.01735877862595228,0.007793893129772522,-0.0005325927734371461,-0.0008170166015625015,0.9991347656250011
0.009435114503816844,-0.013175572519085882,0.00016030534351296755,0.001664672851562854,0.00015954589843749853,0.9942519531250011
0.0018015267175573446,-0.005541984732826327,0.007793893129772522,-0.004194702148437146,0.0008919677734374985,0.9979140625000011
0.009435114503816844,0.0020916030534331997,0.007793893129772522,-0.012251342773437146,-0.0020377197265625015,0.9915664062500011
-0.00583206106870221,0.0020916030534331997,0.007793893129772522,0.002641235351562854,0.0021126708984374985,0.9915664062500011
0.009435114503816844,-0.005541984732826327,-0.007473282442746559,-0.013227905273437146,-0.0039908447265625015,1.0005996093750011
0.009435114503816844,0.009725190839692754,-0.007473282442746559,0.005326782226562854,0.0006478271484374985,0.9959609375000011
0.0018015267175573446,0.024992366412211836,0.007793893129772522,0.001908813476562854,-0.0052115478515625015,1.0035292968750011
-0.00583206106870221,0.009725190839692754,0.00016030534351296755,-0.003950561523437146,0.0052864990234374985,0.9979140625000011
-0.00583206106870221,0.024992366412211836,0.023061068702291604,0.004106079101562854,0.0035775146484374985,0.9993789062500011
-0.02109923664122132,-0.005541984732826327,-0.007473282442746559,0.00019982910156285394,0.0047982177734374985,0.9981582031250011
-0.02873282442748082,-0.013175572519085882,0.01542748091603205,0.002397094726562854,-0.0035025634765625015,1.0045058593750011
-0.00583206106870221,-0.013175572519085882,0.00016030534351296755,-0.0007767333984371461,-0.0037467041015625015,0.9942519531250011
0.009435114503816844,0.0020916030534331997,-0.015106870229006114,0.013627563476562854,0.013343139648437499,0.9984023437500011
0.009435114503816844,-0.005541984732826327,-0.015106870229006114,0.017289672851562854,0.0023568115234374985,1.0152480468750011
-0.00583206106870221,-0.02080916030534541,0.00016030534351296755,0.006303344726562854,0.00040368652343749853,1.0059707031250011
-0.02873282442748082,-0.005541984732826327,0.01542748091603205,0.002152954101562854,0.0006478271484374985,1.0040175781250011
0.009435114503816844,0.009725190839692754,0.03069465648855113,0.003861938476562854,0.0194466552734375,1.0023085937500011
0.0018015267175573446,0.024992366412211836,-0.007473282442746559,0.003617797851562854,0.0043099365234374985,0.9966933593750011
-0.02109923664122132,0.0020916030534331997,0.023061068702291604,-0.011030639648437146,-0.0020377197265625015,1.0084121093750011
0.0170687022900764,-0.02080916030534541,-0.007473282442746559,-0.002241577148437146,-0.0017935791015625015,1.0015761718750011
0.0170687022900764,-0.005541984732826327,0.00016030534351296755,-0.005415405273437146,0.0026009521484374985,0.9954726562500011
-0.02109923664122132,-0.005541984732826327,0.023061068702291604,-0.003950561523437146,0.0040657958984374985,1.0045058593750011
-0.013465648854961765,-0.005541984732826327,0.00016030534351296755,0.004350219726562854,-0.0035025634765625015,1.0089003906250011
0.009435114503816844,0.01735877862595228,0.023061068702291604,-0.003950561523437146,0.0055306396484374985,0.9922988281250011
0.0018015267175573446,-0.005541984732826327,0.00016030534351296755,0.001908813476562854,-0.0005728759765625015,0.9969375000000011
0.0018015267175573446,0.009725190839692754,0.00016030534351296755,0.015580688476562854,-0.0032584228515625015,1.0015761718750011
-0.00583206106870221,-0.02080916030534541,0.00016030534351296755,0.002641235351562854,0.0038216552734374985,0.9891250000000011
-0.00583206106870221,0.0020916030534331997,0.007793893129772522,-0.002485717773437146,0.0018685302734374985,1.0052382812500011
0.009435114503816844,-0.005541984732826327,-0.015106870229006114,0.002152954101562854,-8.459472656250147e-05,1.0001113281250011
-0.013465648854961765,-0.02080916030534541,-0.007473282442746559,0.0009322509765628539,-0.0054556884765625015,0.9981582031250011
0.009435114503816844,-0.013175572519085882,0.007793893129772522,-0.002241577148437146,-0.0008170166015625015,0.9954726562500011
0.0018015267175573446,-0.013175572519085882,0.007793893129772522,-0.011030639648437146,0.0055306396484374985,1.0027968750000011
0.0018015267175573446,0.01735877862595228,-0.007473282442746559,0.001664672851562854,0.0018685302734374985,1.0013320312500011
0.0018015267175573446,0.01735877862595228,0.03069465648855113,0.0006881103515628539,0.0028450927734374985,0.9910781250000011
0.024702290076335953,0.009725190839692754,0.01542748091603205,-0.003218139648437146,0.0016243896484374985,1.0106093750000011
-0.013465648854961765,0.009725190839692754,0.01542748091603205,0.0009322509765628539,0.0023568115234374985,1.0076796875000011
0.0170687022900764,-0.013175572519085882,0.007793893129772522,-0.002729858398437146,0.0038216552734374985,0.9984023437500011
-0.02873282442748082,-0.013175572519085882,0.007793893129772522,0.015824829101562854,0.0172493896484375,0.9952285156250011
-0.02873282442748082,-0.013175572519085882,0.007793893129772522,-0.002241577148437146,0.0006478271484374985,1.0042617187500011
-0.00583206106870221,-0.005541984732826327,0.00016030534351296755,-0.006391967773437146,-0.0015494384765625015,1.0052382812500011
-0.02109923664122132,0.009725190839692754,0.00016030534351296755,-0.013227905273437146,0.0040657958984374985,0.9984023437500011
-0.00583206106870221,-0.005541984732826327,0.023061068702291604,-0.0005325927734371461,0.0023568115234374985,0.9984023437500011
-0.00583206106870221,0.0020916030534331997,-0.007473282442746559,-0.003462280273437146,-0.0049674072265625015,0.9962050781250011
0.0018015267175573446,-0.028442748091604964,-0.02274045801526564,-0.00028845214843714606,-0.0066763916015625015,1.0152480468750011
0.0018015267175573446,-0.005541984732826327,0.007793893129772522,0.003129516601562854,-0.0049674072265625015,0.9942519531250011
0.03996946564885506,0.0020916030534331997,0.00016030534351296755,-0.0007767333984371461,-0.0022818603515625015,1.0008437500000011
0.0170687022900764,-0.005541984732826327,0.00016030534351296755,-0.004194702148437146,0.0011361083984374985,1.0045058593750011
-0.00583206106870221,-0.013175572519085882,0.007793893129772522,-0.001753295898437146,0.0013802490234374985,1.0008437500000011
-0.013465648854961765,-0.005541984732826327,0.00016030534351296755,0.013871704101562854,0.0074837646484374985,1.0001113281250011
0.009435114503816844,-0.013175572519085882,0.00016030534351296755,0.001664672851562854,0.0008919677734374985,0.9988906250000011
0.009435114503816844,0.0020916030534331997,-0.007473282442746559,0.0009322509765628539,-0.0025260009765625015,1.0032851562500011
0.0018015267175573446,-0.013175572519085882,0.007793893129772522,0.015336547851562854,-0.0010611572265625015,1.0020644531250011
-0.03636641221374037,-0.005541984732826327,0.01542748091603205,0.006303344726562854,-0.0008170166015625015,0.9979140625000011
0.009435114503816844,-0.013175572519085882,-0.007473282442746559,0.001176391601562854,0.0008919677734374985,0.9971816406250011
-0.00583206106870221,0.01735877862595228,0.007793893129772522,0.001908813476562854,0.0172493896484375,1.0023085937500011
-0.013465648854961765,0.024992366412211836,-0.015106870229006114,-0.004438842773437146,0.0008919677734374985,1.0045058593750011
0.0018015267175573446,0.0020916030534331997,0.00016030534351296755,0.0009322509765628539,0.0060189208984374985,1.0015761718750011
0.0018015267175573446,-0.013175572519085882,0.007793893129772522,0.00044396972656285394,0.0043099365234374985,1.0018203125000011
0.0170687022900764,0.0020916030534331997,0.00016030534351296755,-0.002973999023437146,-0.0047232666015625015,1.0015761718750011
0.009435114503816844,0.0020916030534331997,0.007793893129772522,0.017045532226562854,0.0177376708984375,1.0172011718750011
0.0018015267175573446,-0.005541984732826327,0.00016030534351296755,0.016557250976562854,0.0035775146484374985,1.0003554687500011
0.009435114503816844,0.009725190839692754,0.007793893129772522,-0.00028845214843714606,0.0016243896484374985,0.9915664062500011
0.009435114503816844,-0.028442748091604964,0.00016030534351296755,0.002152954101562854,0.00015954589843749853,1.0040175781250011
0.0018015267175573446,-0.013175572519085882,-0.007473282442746559,0.001420532226562854,-0.0030142822265625015,1.0042617187500011
0.009435114503816844,-0.013175572519085882,0.007793893129772522,0.001664672851562854,-0.0017935791015625015,0.9991347656250011
-0.00583206106870221,0.009725190839692754,-0.007473282442746559,-0.001753295898437146,-0.0032584228515625015,0.9949843750000011
-0.00583206106870221,-0.005541984732826327,0.007793893129772522,-0.002241577148437146,-0.0030142822265625015,0.9922988281250011
-0.013465648854961765,-0.005541984732826327,0.01542748091603205,-0.001509155273437146,0.0165169677734375,1.0013320312500011
-0.013465648854961765,0.009725190839692754,-0.007473282442746559,0.00019982910156285394,0.0038216552734374985,0.9984023437500011
0.009435114503816844,-0.005541984732826327,0.007793893129772522,0.00019982910156285394,-0.0020377197265625015,0.9984023437500011
0.0018015267175573446,-0.005541984732826327,0.007793893129772522,-4.431152343714606e-05,-0.0064322509765625015,1.0067031250000011
-0.00583206106870221,-0.028442748091604964,0.00016030534351296755,0.0006881103515628539,0.012610717773437499,1.0005996093750011
-0.00583206106870221,-0.005541984732826327,-0.007473282442746559,-0.003462280273437146,-0.0022818603515625015,0.9896132812500011
-0.00583206106870221,-0.005541984732826327,0.03069465648855113,0.008988891601562854,-8.459472656250147e-05,0.9988906250000011
-0.00583206106870221,0.009725190839692754,-0.02274045801526564,-0.008100952148437146,-0.0044791259765625015,1.0025527343750011
0.0018015267175573446,-0.013175572519085882,0.00016030534351296755,0.003373657226562854,0.013831420898437499,0.9979140625000011
0.024702290076335953,0.0020916030534331997,0.00016030534351296755,-0.003950561523437146,-0.0030142822265625015,1.0052382812500011
0.0170687022900764,-0.005541984732826327,0.007793893129772522,-0.001265014648437146,-0.0008170166015625015,0.9998671875000011
-0.013465648854961765,-0.005541984732826327,-0.007473282442746559,0.0006881103515628539,0.0035775146484374985,0.9966933593750011
-0.02109923664122132,-0.02080916030534541,-0.015106870229006114,-0.010786499023437146,0.0016243896484374985,1.0030410156250011
0.0170687022900764,-0.005541984732826327,-0.03800763358778475,-0.012983764648437146,0.0016243896484374985,1.0015761718750011
0.009435114503816844,-0.028442748091604964,0.00016030534351296755,-4.431152343714606e-05,-0.0015494384765625015,0.9993789062500011
-0.00583206106870221,0.0020916030534331997,0.01542748091603205,-0.012495483398437146,0.0013802490234374985,1.0018203125000011
0.0170687022900764,-0.013175572519085882,0.01542748091603205,0.004350219726562854,0.0008919677734374985,1.0023085937500011
-0.02109923664122132,0.0020916030534331997,0.023061068702291604,0.0009322509765628539,-0.0015494384765625015,0.9910781250000011
0.0018015267175573446,-0.005541984732826327,0.007793893129772522,0.002885375976562854,0.0170052490234375,0.9891250000000011
0.0018015267175573446,-0.005541984732826327,-0.015106870229006114,0.003373657226562854,0.0035775146484374985,0.9966933593750011
0.0018015267175573446,-0.005541984732826327,0.00016030534351296755,0.0006881103515628539,0.00040368652343749853,0.9896132812500011
0.0018015267175573446,0.009725190839692754,-0.007473282442746559,-0.001753295898437146,0.0006478271484374985,1.0045058593750011
0.009435114503816844,0.009725190839692754,0.01542748091603205,-0.002729858398437146,0.0011361083984374985,1.0069472656250011
0.0018015267175573446,-0.005541984732826327,0.01542748091603205,0.014115844726562854,0.0030892333984374985,0.9976699218750011
0.0018015267175573446,0.0020916030534331997,0.00016030534351296755,0.002397094726562854,-0.015465454101562501,0.9925429687500011
-0.02873282442748082,-0.028442748091604964,0.00016030534351296755,0.012162719726562854,-0.0020377197265625015,1.0027968750000011
-0.013465648854961765,-0.005541984732826327,0.01542748091603205,-0.002973999023437146,0.0028450927734374985,1.0137832031250011
0.009435114503816844,-0.005541984732826327,0.00016030534351296755,0.013383422851562854,0.0038216552734374985,0.9935195312500011
0.0170687022900764,-0.005541984732826327,0.01542748091603205,-0.002729858398437146,0.0016243896484374985,0.9891250000000011
0.009435114503816844,0.009725190839692754,0.00016030534351296755,0.001420532226562854,0.0035775146484374985,1.0020644531250011
0.0018015267175573446,0.01735877862595228,0.03069465648855113,-0.002485717773437146,0.0052864990234374985,0.9981582031250011
-0.013465648854961765,0.01735877862595228,-0.007473282442746559,0.002885375976562854,-0.0005728759765625015,1.0167128906250011
0.0170687022900764,0.024992366412211836,0.007793893129772522,0.017533813476562854,-0.0022818603515625015,0.9986464843750011
0.024702290076335953,-0.013175572519085882,0.007793893129772522,0.004106079101562854,-0.0035025634765625015,1.0101210937500011
0.024702290076335953,-0.005541984732826327,0.023061068702291604,-0.005171264648437146,0.00015954589843749853,0.9835097656250011
0.055236641221374116,-0.03607633587786449,0.00016030534351296755,0.010453735351562854,0.0028450927734374985,0.9913222656250011
0.024702290076335953,0.0020916030534331997,0.007793893129772522,0.004838500976562854,-0.009606079101562501,0.9979140625000011
0.03996946564885506,0.0020916030534331997,-0.007473282442746559,-0.011030639648437146,-0.0022818603515625015,1.0057265625000011
0.0018015267175573446,0.024992366412211836,-0.02274045801526564,-0.012739624023437146,0.0021126708984374985,0.9984023437500011
0.03233587786259551,0.009725190839692754,0.007793893129772522,0.0006881103515628539,-0.0074088134765625015,1.0147597656250011
0.03233587786259551,0.009725190839692754,0.023061068702291604,0.009721313476562854,-0.0044791259765625015,1.0045058593750011
-0.02873282442748082,0.03262595419847139,0.023061068702291604,0.004594360351562854,-0.00032873535156250147,0.9959609375000011
0.009435114503816844,0.009725190839692754,0.023061068702291604,-0.008589233398437146,0.0006478271484374985,0.9940078125000011
-0.02873282442748082,0.03262595419847139,-0.015106870229006114,0.002885375976562854,0.0047982177734374985,1.0098769531250011
-0.08216793893129765,-0.005541984732826327,-0.007473282442746559,-0.012007202148437146,0.0162728271484375,0.9922988281250011
-0.02873282442748082,-0.02080916030534541,0.01542748091603205,-0.025434936523437146,0.009436889648437499,0.9515273437500011
0.21554198473282454,-0.028442748091604964,0.01542748091603205,0.014604125976562854,-0.0025260009765625015,1.0377089843750011
-0.013465648854961765,-0.005541984732826327,0.007793893129772522,0.003129516601562854,0.0204232177734375,0.9754531250000011
0.009435114503816844,-0.005541984732826327,0.00016030534351296755,-0.0007767333984371461,-0.0059439697265625015,1.0015761718750011
0.0170687022900764,-0.03607633587786449,0.007793893129772522,0.016068969726562854,-0.0025260009765625015,1.0128066406250011
0.0018015267175573446,0.0020916030534331997,-0.007473282442746559,0.0006881103515628539,-0.0015494384765625015,0.9944960937500011
0.055236641221374116,0.0020916030534331997,0.00016030534351296755,0.004594360351562854,0.00040368652343749853,0.9959609375000011
0.03233587786259551,-0.013175572519085882,0.007793893129772522,0.004106079101562854,-0.0020377197265625015,1.0123183593750011
0.03233587786259551,-0.02080916030534541,0.01542748091603205,-0.0005325927734371461,0.014563842773437499,0.9979140625000011
0.0018015267175573446,0.009725190839692754,0.007793893129772522,0.002397094726562854,0.0028450927734374985,1.0010878906250011
0.03996946564885506,-0.02080916030534541,0.00016030534351296755,-0.001265014648437146,-0.0074088134765625015,1.0003554687500011
0.024702290076335953,-0.013175572519085882,0.007793893129772522,0.017045532226562854,0.0013802490234374985,0.9996230468750011
0.024702290076335953,-0.02080916030534541,0.023061068702291604,-0.001753295898437146,-0.0037467041015625015,0.9861953125000011
0.03996946564885506,0.024992366412211836,0.03069465648855113,0.003373657226562854,0.0028450927734374985,1.0054824218750011
0.0170687022900764,0.024992366412211836,0.00016030534351296755,-0.002973999023437146,0.0023568115234374985,0.9920546875000011
0.009435114503816844,0.0020916030534331997,0.00016030534351296755,-0.002729858398437146,0.00040368652343749853,1.0093886718750011
0.0170687022900764,0.009725190839692754,0.00016030534351296755,-0.002729858398437146,-0.0037467041015625015,0.9954726562500011
0.0018015267175573446,0.009725190839692754,0.01542748091603205,-0.005171264648437146,0.0013802490234374985,1.0010878906250011
0.024702290076335953,0.01735877862595228,0.007793893129772522,0.011674438476562854,-0.0025260009765625015,1.0015761718750011
0.0018015267175573446,-0.028442748091604964,0.04596183206107021,-0.008589233398437146,0.0026009521484374985,1.0025527343750011
0.009435114503816844,0.024992366412211836,0.023061068702291604,-0.001265014648437146,0.0021126708984374985,1.0015761718750011
0.024702290076335953,0.01735877862595228,0.023061068702291604,-0.001997436523437146,0.0038216552734374985,1.0032851562500011
0.0018015267175573446,0.0020916030534331997,0.023061068702291604,-0.002729858398437146,0.0021126708984374985,1.0001113281250011
0.0018015267175573446,0.024992366412211836,-0.007473282442746559,0.007279907226562854,-0.0010611572265625015,1.0086562500000011
-0.013465648854961765,0.04025954198473092,0.00016030534351296755,-0.008833374023437146,-0.0027701416015625015,0.9991347656250011
-0.013465648854961765,-0.013175572519085882,0.01542748091603205,0.002641235351562854,-8.459472656250147e-05,1.0005996093750011
-0.00583206106870221,0.0020916030534331997,0.023061068702291604,-0.003462280273437146,0.00015954589843749853,1.0018203125000011
-0.00583206106870221,0.009725190839692754,0.023061068702291604,0.017777954101562854,0.0033333740234374985,0.9910781250000011
-0.00583206106870221,0.0020916030534331997,0.01542748091603205,-0.006636108398437146,0.0026009521484374985,1.0067031250000011
0.009435114503816844,-0.005541984732826327,-0.007473282442746559,-0.002241577148437146,0.0060189208984374985,1.0027968750000011
0.024702290076335953,0.0020916030534331997,0.00016030534351296755,0.004594360351562854,-0.008629516601562501,1.0005996093750011
0.0018015267175573446,-0.013175572519085882,0.023061068702291604,0.016557250976562854,0.014563842773437499,0.9971816406250011
0.009435114503816844,-0.005541984732826327,-0.007473282442746559,0.017533813476562854,0.0008919677734374985,1.0162246093750011
0.0018015267175573446,0.01735877862595228,0.00016030534351296755,0.004594360351562854,0.0018685302734374985,1.0008437500000011
0.009435114503816844,-0.02080916030534541,0.007793893129772522,0.013383422851562854,0.0057747802734374985,1.0018203125000011
-0.00583206106870221,-0.02080916030534541,0.00016030534351296755,-4.431152343714606e-05,0.00015954589843749853,1.0013320312500011
0.009435114503816844,0.0020916030534331997,0.00016030534351296755,-0.006880249023437146,0.0035775146484374985,1.0015761718750011
0.009435114503816844,-0.02080916030534541,0.00016030534351296755,0.004106079101562854,0.0028450927734374985,0.9971816406250011
-0.00583206106870221,-0.02080916030534541,0.03069465648855113,0.002152954101562854,-0.0035025634765625015,1.0018203125000011
-0.00583206106870221,0.009725190839692754,0.023061068702291604,-0.00028845214843714606,-0.0022818603515625015,0.9910781250000011
0.03233587786259551,-0.005541984732826327,0.007793893129772522,0.0006881103515628539,-0.0013052978515625015,1.0027968750000011
0.0018015267175573446,-0.013175572519085882,0.00016030534351296755,-0.006147827148437146,-0.0017935791015625015,0.9952285156250011
0.0170687022900764,-0.02080916030534541,0.00016030534351296755,-0.012251342773437146,0.0021126708984374985,0.9964492187500011
-0.02873282442748082,0.10132824427480726,0.007793893129772522,-0.002729858398437146,0.00040368652343749853,0.9903457031250011
0.10867175572519089,-0.03607633587786449,-0.02274045801526564,0.002397094726562854,-0.008873657226562501,1.0511367187500011
0.0170687022900764,-0.013175572519085882,0.00016030534351296755,0.016557250976562854,-0.0008170166015625015,1.0098769531250011
0.0170687022900764,-0.013175572519085882,0.007793893129772522,0.013627563476562854,-0.0069205322265625015,1.0123183593750011
0.0018015267175573446,-0.02080916030534541,0.01542748091603205,0.016801391601562854,-0.0013052978515625015,0.9957167968750011
-0.00583206106870221,-0.02080916030534541,-0.007473282442746559,0.0009322509765628539,0.0038216552734374985,0.9988906250000011
-0.00583206106870221,0.009725190839692754,0.00016030534351296755,0.0006881103515628539,0.0023568115234374985,0.9927871093750011
-0.02109923664122132,-0.005541984732826327,0.023061068702291604,0.00044396972656285394,0.0016243896484374985,0.9927871093750011
-0.013465648854961765,0.009725190839692754,0.01542748091603205,0.006547485351562854,0.0043099365234374985,1.0015761718750011
0.0018015267175573446,-0.013175572519085882,0.00016030534351296755,-0.001020874023437146,-0.0035025634765625015,0.9898574218750011
0.0018015267175573446,0.0020916030534331997,-0.02274045801526564,-0.002729858398437146,0.0030892333984374985,0.9971816406250011
0.0018015267175573446,0.009725190839692754,-0.015106870229006114,0.015824829101562854,-0.0022818603515625015,0.9966933593750011
-0.00583206106870221,0.0020916030534331997,0.01542748091603205,-0.0005325927734371461,0.0055306396484374985,0.9962050781250011
0.0170687022900764,-0.005541984732826327,0.007793893129772522,0.004106079101562854,-8.459472656250147e-05,0.9901015625000011
-0.02873282442748082,-0.005541984732826327,0.007793893129772522,-0.009565795898437146,0.0172493896484375,1.0003554687500011
0.009435114503816844,-0.02080916030534541,0.007793893129772522,-0.013227905273437146,-0.007897094726562501,1.0003554687500011
-0.00583206106870221,-0.013175572519085882,-0.015106870229006114,0.014604125976562854,-0.0052115478515625015,0.9979140625000011
0.03233587786259551,0.0020916030534331997,-0.015106870229006114,-0.012251342773437146,-0.0042349853515625015,1.0169570312500011
0.009435114503816844,0.0020916030534331997,-0.007473282442746559,0.003617797851562854,-0.0020377197265625015,1.0064589843750011
0.0018015267175573446,0.0020916030534331997,0.023061068702291604,-0.003950561523437146,0.0028450927734374985,0.9974257812500011
0.0018015267175573446,-0.028442748091604964,0.03069465648855113,0.016068969726562854,0.00040368652343749853,0.9893691406250011
-0.02873282442748082,-0.013175572519085882,0.00016030534351296755,0.009721313476562854,0.0011361083984374985,0.9925429687500011
0.009435114503816844,-0.005541984732826327,0.007793893129772522,-0.001753295898437146,0.0026009521484374985,0.9974257812500011
0.009435114503816844,-0.028442748091604964,0.00016030534351296755,-0.002241577148437146,-0.00032873535156250147,1.0040175781250011
0.0170687022900764,0.01735877862595228,0.00016030534351296755,-0.0007767333984371461,-0.0071646728515625015,0.9981582031250011
-0.00583206106870221,-0.013175572519085882,-0.007473282442746559,-0.013227905273437146,-0.0069205322265625015,0.9922988281250011
-0.013465648854961765,0.01735877862595228,0.023061068702291604,0.003617797851562854,0.0033333740234374985,0.9996230468750011
0.0018015267175573446,0.009725190839692754,0.01542748091603205,0.012895141601562854,0.0028450927734374985,0.9896132812500011
0.009435114503816844,-0.02080916030534541,0.00016030534351296755,-0.002729858398437146,-0.010582641601562501,0.9925429687500011
-0.02873282442748082,-0.013175572519085882,0.007793893129772522,-0.012983764648437146,0.0204232177734375,1.0054824218750011
0.0170687022900764,-0.005541984732826327,0.007793893129772522,0.017777954101562854,0.0030892333984374985,1.0037734375000011
0.0018015267175573446,-0.005541984732826327,0.007793893129772522,0.006791625976562854,0.0043099365234374985,1.0023085937500011
-0.02873282442748082,0.009725190839692754,0.023061068702291604,-0.011030639648437146,0.0162728271484375,0.9981582031250011
-0.00583206106870221,0.01735877862595228,0.01542748091603205,0.012406860351562854,-0.0052115478515625015,0.9930312500000011
0.0018015267175573446,0.0020916030534331997,0.023061068702291604,-0.012983764648437146,0.0006478271484374985,0.9959609375000011
-0.00583206106870221,0.009725190839692754,-0.007473282442746559,-0.013227905273437146,-0.0035025634765625015,0.9988906250000011
0.009435114503816844,-0.005541984732826327,0.007793893129772522,0.006547485351562854,0.0047982177734374985,1.0123183593750011
0.0018015267175573446,0.01735877862595228,-0.007473282442746559,-0.011518920898437146,0.0013802490234374985,0.9996230468750011
0.0018015267175573446,0.01735877862595228,0.01542748091603205,0.016313110351562854,0.0030892333984374985,1.0189101562500011
0.0018015267175573446,0.009725190839692754,0.007793893129772522,-0.004927124023437146,-0.0015494384765625015,1.0049941406250011
0.009435114503816844,-0.005541984732826327,0.01542748091603205,0.001908813476562854,0.0033333740234374985,0.9957167968750011
0.0018015267175573446,0.0020916030534331997,-0.007473282442746559,0.006303344726562854,0.0060189208984374985,0.9954726562500011
0.0018015267175573446,0.024992366412211836,0.00016030534351296755,-0.007856811523437146,-0.0069205322265625015,0.9986464843750011
-0.02873282442748082,0.01735877862595228,0.00016030534351296755,-0.0007767333984371461,-0.0022818603515625015,1.0005996093750011
-0.02109923664122132,-0.005541984732826327,0.01542748091603205,0.003861938476562854,0.0021126708984374985,1.0027968750000011
-0.02873282442748082,0.009725190839692754,0.01542748091603205,0.017045532226562854,0.00015954589843749853,0.9976699218750011
-0.02109923664122132,-0.005541984732826327,0.023061068702291604,0.001420532226562854,0.0035775146484374985,1.0030410156250011
-0.013465648854961765,0.01735877862595228,0.007793893129772522,0.014359985351562854,0.0026009521484374985,1.0062148437500011
0.0018015267175573446,-0.02080916030534541,0.03069465648855113,-0.0007767333984371461,-0.0008170166015625015,1.0086562500000011
-0.00583206106870221,0.009725190839692754,0.01542748091603205,0.005082641601562854,0.00040368652343749853,1.0023085937500011
-0.00583206106870221,0.0020916030534331997,0.01542748091603205,-0.012251342773437146,-0.0035025634765625015,1.0015761718750011
-0.00583206106870221,-0.013175572519085882,0.00016030534351296755,0.015092407226562854,0.0043099365234374985,1.0020644531250011
0.0018015267175573446,-0.005541984732826327,0.01542748091603205,-0.003950561523437146,-0.0008170166015625015,1.0005996093750011
0.0018015267175573446,-0.005541984732826327,0.00016030534351296755,0.0009322509765628539,-0.0030142822265625015,1.0191542968750011
0.0170687022900764,0.0020916030534331997,-0.007473282442746559,-0.001265014648437146,0.0030892333984374985,0.9949843750000011
0.024702290076335953,0.01735877862595228,0.007793893129772522,0.004350219726562854,-0.010582641601562501,1.0025527343750011
0.009435114503816844,-0.013175572519085882,0.007793893129772522,-0.002729858398437146,-0.0013052978515625015,1.0086562500000011
0.0018015267175573446,-0.028442748091604964,0.01542748091603205,0.005326782226562854,-0.0010611572265625015,1.0057265625000011
-0.00583206106870221,-0.02080916030534541,0.007793893129772522,-0.003462280273437146,-0.0008170166015625015,0.9964492187500011
0.009435114503816844,-0.04370992366412402,0.01542748091603205,0.002152954101562854,0.0028450927734374985,1.0108535156250011
0.009435114503816844,-0.02080916030534541,0.023061068702291604,0.0009322509765628539,-0.0010611572265625015,0.9969375000000011
-0.00583206106870221,-0.02080916030534541,0.007793893129772522,0.001908813476562854,0.0047982177734374985,1.0005996093750011
0.0170687022900764,0.0020916030534331997,0.007793893129772522,-0.001020874023437146,0.0016243896484374985,1.0049941406250011
0.03996946564885506,-0.02080916030534541,0.01542748091603205,-0.003218139648437146,0.0026009521484374985,0.9898574218750011
-0.00583206106870221,-0.005541984732826327,0.00016030534351296755,-0.001020874023437146,0.0033333740234374985,1.0164687500000011
0.024702290076335953,-0.005541984732826327,0.01542748091603205,-0.0007767333984371461,-0.0049674072265625015,1.0062148437500011
0.03233587786259551,-0.04370992366412402,0.00016030534351296755,-0.002729858398437146,0.0035775146484374985,0.9944960937500011
-0.02109923664122132,-0.005541984732826327,0.01542748091603205,-0.004438842773437146,0.0016243896484374985,1.0125625000000011
-0.00583206106870221,0.04789312977099047,-0.007473282442746559,0.001420532226562854,-0.010094360351562501,0.9981582031250011
-0.04399999999999993,-0.005541984732826327,0.01542748091603205,0.014604125976562854,-0.00032873535156250147,1.0003554687500011
0.0018015267175573446,-0.02080916030534541,0.007793893129772522,0.011918579101562854,-0.0039908447265625015,0.9869277343750011
0.0170687022900764,0.024992366412211836,0.00016030534351296755,-0.0005325927734371461,0.0030892333984374985,1.0010878906250011
0.04760305343511456,0.024992366412211836,-0.030374045801525196,0.004106079101562854,0.00015954589843749853,1.0025527343750011
0.009435114503816844,-0.005541984732826327,0.00016030534351296755,-0.006147827148437146,0.0023568115234374985,1.0035292968750011
-0.02873282442748082,-0.005541984732826327,0.00016030534351296755,-0.001509155273437146,0.0052864990234374985,1.0157363281250011
0.0170687022900764,0.01735877862595228,0.007793893129772522,0.00019982910156285394,0.0026009521484374985,1.0008437500000011
0.0018015267175573446,0.03262595419847139,0.00016030534351296755,-0.006391967773437146,0.0030892333984374985,1.0174453125000011
0.024702290076335953,-0.005541984732826327,0.00016030534351296755,-0.007612670898437146,0.013098999023437499,1.0179335937500011
0.0018015267175573446,0.024992366412211836,0.023061068702291604,-0.00028845214843714606,0.0199349365234375,0.9969375000000011
0.0018015267175573446,-0.02080916030534541,0.007793893129772522,-0.002973999023437146,0.0021126708984374985,0.9930312500000011
0.0018015267175573446,-0.02080916030534541,0.01542748091603205,0.005570922851562854,0.0199349365234375,1.0162246093750011
0.0018015267175573446,-0.013175572519085882,0.007793893129772522,0.010942016601562854,0.0008919677734374985,1.0003554687500011
-0.013465648854961765,-0.02080916030534541,0.007793893129772522,0.005082641601562854,0.0030892333984374985,1.0132949218750011
0.0018015267175573446,-0.013175572519085882,0.007793893129772522,-0.012495483398437146,-0.0030142822265625015,0.9976699218750011
-0.02873282442748082,0.024992366412211836,-0.007473282442746559,-0.004927124023437146,-0.0044791259765625015,0.9986464843750011
0.03233587786259551,0.01735877862595228,0.007793893129772522,-0.007368530273437146,0.014563842773437499,0.9988906250000011
-0.00583206106870221,-0.02080916030534541,-0.007473282442746559,-0.005171264648437146,0.0028450927734374985,1.0003554687500011
0.03996946564885506,0.03262595419847139,0.007793893129772522,0.017533813476562854,0.0157845458984375,1.0067031250000011
0.009435114503816844,0.04789312977099047,0.01542748091603205,-0.013227905273437146,0.0040657958984374985,1.0230605468750011
0.024702290076335953,0.06316030534350955,0.007793893129772522,0.001176391601562854,0.0062630615234374985,1.0079238281250011
-0.00583206106870221,0.01735877862595228,0.00016030534351296755,0.008744750976562854,0.0040657958984374985,1.0128066406250011
-0.013465648854961765,-0.013175572519085882,-0.02274045801526564,-0.013227905273437146,-0.0013052978515625015,0.9937636718750011
-0.02873282442748082,0.0020916030534331997,0.00016030534351296755,-0.012007202148437146,0.0035775146484374985,1.0027968750000011
-0.04399999999999993,0.0020916030534331997,0.007793893129772522,0.011674438476562854,-0.0027701416015625015,0.9966933593750011
0.0018015267175573446,-0.013175572519085882,0.007793893129772522,0.013383422851562854,-0.0017935791015625015,0.9744765625000011
0.03233587786259551,0.0020916030534331997,0.01542748091603205,0.009965454101562854,-0.0015494384765625015,1.0096328125000011
0.024702290076335953,-0.013175572519085882,0.007793893129772522,0.016068969726562854,0.0026009521484374985,1.0113417968750011
0.024702290076335953,-0.013175572519085882,0.023061068702291604,-0.011030639648437146,0.0021126708984374985,1.0030410156250011
-0.013465648854961765,-0.02080916030534541,0.01542748091603205,-0.003218139648437146,0.0016243896484374985,1.0059707031250011
0.009435114503816844,-0.013175572519085882,0.01542748091603205,0.015580688476562854,0.0045540771484374985,1.0001113281250011
0.009435114503816844,-0.04370992366412402,0.03832824427481066,-0.005415405273437146,-0.0054556884765625015,1.0069472656250011
0.055236641221374116,-0.05897709923664313,0.023061068702291604,-0.002485717773437146,-0.0025260009765625015,1.0018203125000011
0.055236641221374116,-0.03607633587786449,0.08412977099236793,-0.003706420898437146,0.0043099365234374985,1.0042617187500011
0.03996946564885506,-0.05897709923664313,0.14519847328244426,-0.011030639648437146,-0.010582641601562501,1.0167128906250011
-0.00583206106870221,-0.028442748091604964,0.3436717557251924,-0.020307983398437146,0.008216186523437499,0.9986464843750011
-0.05926717557251898,-0.02080916030534541,0.4505419847328259,-0.038130249023437146,0.0045540771484374985,0.9901015625000011
-0.06690076335877854,0.0020916030534331997,0.3207709923664137,0.001420532226562854,-0.0020377197265625015,0.9991347656250011
-0.02109923664122132,-0.03607633587786449,0.1375648854961847,0.045365844726562854,0.0013802490234374985,1.0132949218750011
-0.02109923664122132,0.009725190839692754,0.04596183206107021,0.026811157226562854,-0.0056998291015625015,1.0093886718750011
-0.013465648854961765,0.01735877862595228,0.00016030534351296755,0.016801391601562854,0.0021126708984374985,1.0035292968750011
-0.02109923664122132,0.0020916030534331997,0.007793893129772522,0.011918579101562854,0.0028450927734374985,0.9903457031250011
0.0170687022900764,0.01735877862595228,-0.030374045801525196,0.003129516601562854,-0.010582641601562501,0.9910781250000011
0.009435114503816844,-0.005541984732826327,-0.06090839694656336,0.001908813476562854,0.00040368652343749853,0.9901015625000011
0.009435114503816844,-0.028442748091604964,-0.07617557251908244,0.001908813476562854,0.0018685302734374985,0.9915664062500011
0.0170687022900764,-0.03607633587786449,-0.1219770992366397,0.003861938476562854,-0.0042349853515625015,0.9974257812500011
0.055236641221374116,-0.08187786259542174,-0.1219770992366397,-0.001753295898437146,0.0052864990234374985,1.0201308593750011
0.024702290076335953,-0.07424427480916224,-0.11434351145038016,-0.001753295898437146,0.0028450927734374985,1.0023085937500011
0.03233587786259551,-0.06661068702290268,-0.06854198473282291,-0.010542358398437146,-0.00032873535156250147,1.0069472656250011
0.04760305343511456,-0.07424427480916224,0.00016030534351296755,-0.0007767333984371461,0.0065072021484374985,1.0108535156250011
0.024702290076335953,-0.04370992366412402,0.023061068702291604,0.017533813476562854,-0.00032873535156250147,1.0062148437500011
0.055236641221374116,-0.03607633587786449,0.05359541984732977,0.014115844726562854,0.0028450927734374985,1.0054824218750011
0.055236641221374116,-0.02080916030534541,0.1375648854961847,-0.004682983398437146,0.0057747802734374985,0.9888808593750011
-0.05926717557251898,0.06316030534350955,0.2444351145038183,-0.017378295898437146,0.015296264648437499,0.9688613281250011
-0.03636641221374037,0.09369465648854772,0.09176335877862749,0.014848266601562854,-0.008873657226562501,0.9957167968750011
0.04760305343511456,0.07079389312976908,0.01542748091603205,0.043901000976562854,-0.012291625976562501,1.0054824218750011
0.07813740458015273,-0.005541984732826327,0.03069465648855113,-0.002241577148437146,-0.0010611572265625015,0.9959609375000011
0.08577099236641228,-0.09714503816794084,0.03832824427481066,0.001908813476562854,-0.0035025634765625015,1.0093886718750011
0.11630534351145044,-0.16584732824427673,0.04596183206107021,-0.004682983398437146,0.0040657958984374985,1.0128066406250011
0.055236641221374116,-0.15821374045801717,0.14519847328244426,-0.007124389648437146,-0.0017935791015625015,0.9922988281250011
-0.05926717557251898,0.0020916030534331997,0.6261145038167953,-0.058638061523437146,0.0187142333984375,0.9605605468750011
-0.14323664122137397,-0.028442748091604964,0.8322213740458031,-0.08671423339843715,0.015540405273437499,0.9937636718750011
-0.21193893129770985,0.009725190839692754,0.8780229007633602,-0.013716186523437146,0.015296264648437499,0.9988906250000011
-0.1508702290076335,-0.03607633587786449,0.8856564885496199,0.007279907226562854,0.0194466552734375,1.0150039062500011
-0.13560305343511442,-0.09714503816794084,0.9772595419847343,0.012895141601562854,0.0387337646484375,1.0045058593750011
-0.14323664122137397,-0.09714503816794084,0.9696259541984749,-0.002729858398437146,0.0260384521484375,0.9930312500000011
-0.09743511450381673,-0.2192824427480935,1.015427480916032,0.001908813476562854,0.0253060302734375,1.0240371093750011
-0.07453435114503809,-0.2956183206106889,1.1757328244274825,-0.014204467773437146,0.011634155273437499,1.0125625000000011
-0.15850381679389305,-0.3261526717557271,1.282603053435116,-0.028608764648437146,0.0006478271484374985,0.9854628906250011
-0.2730076335877862,-0.22691603053435305,1.1451984732824443,-0.038374389648437146,-0.0291373291015625,0.9725234375000011
-0.41041221374045794,0.01735877862595228,0.9238244274809175,0.051713500976562854,-0.0354849853515625,0.9605605468750011
-0.4027786259541984,-0.05897709923664313,0.8474885496183222,0.041459594726562854,0.0030892333984374985,1.0157363281250011
-0.39514503816793883,-0.1047786259542004,0.900923664122139,0.009721313476562854,0.0157845458984375,1.0103652343750011
-0.3798778625954198,-0.08187786259542174,0.8780229007633602,-0.020796264648437146,0.0333626708984375,1.0091445312500011
-0.2653740458015266,0.024992366412211836,0.8474885496183222,0.031693969726562854,0.0072396240234374985,1.0154921875000011
-0.18903816793893122,0.05552671755725,0.8016870229007649,0.009965454101562854,-0.0017935791015625015,1.0093886718750011
-0.11270229007633581,0.06316030534350955,0.8703893129771008,-0.010298217773437146,-0.010338500976562501,1.0218398437500011
-0.08216793893129765,0.4372061068702271,1.1757328244274825,-0.054243530273437146,0.0050423583984374985,0.9752089843750011
0.024702290076335953,0.7654503816793874,1.2139007633587802,-0.049116577148437146,-0.0017935791015625015,1.0276992187500011
0.19264122137404588,0.7730839694656471,1.198633587786261,-0.004438842773437146,0.014075561523437499,1.0364882812500011
0.2842442748091604,0.20819847328244084,1.1910000000000014,0.008256469726562854,0.0026009521484374985,1.0367324218750011
0.207908396946565,-0.2345496183206126,1.1222977099236655,0.023149047851562854,-0.0017935791015625015,0.9986464843750011
0.03233587786259551,-0.5551603053435135,1.0764961832061084,0.019242797851562854,-0.012779907226562501,0.9737441406250011
0.009435114503816844,-0.7994351145038185,1.015427480916032,0.014115844726562854,0.0055306396484374985,1.0189101562500011
0.1468396946564886,-1.0208091603053453,0.9161908396946581,0.019242797851562854,0.0321419677734375,1.0533339843750011
0.2995114503816794,-1.5322595419847347,0.8093206106870243,0.041459594726562854,0.0279915771484375,1.0797011718750011
0.34531297709923675,-1.913938931297712,1.099396946564887,0.010697875976562854,0.0450814208984375,1.0709121093750011
0.4674503816793894,-2.2192824427480935,1.1299312977099252,-0.034956420898437146,0.0546029052734375,1.0604140625000011
0.2995114503816794,-2.013175572519086,0.9619923664122152,-0.07621618652343715,-0.008141235351562501,0.9366347656250011
0.2842442748091604,-1.2192824427480935,0.8474885496183222,-0.015425170898437146,-0.0225455322265625,0.9378554687500011
0.2231755725190841,-0.1963816793893149,0.7711526717557267,-0.010054077148437146,-0.0186392822265625,0.9544570312500011
0.03233587786259551,-1.692564885496185,0.7024503816793908,0.057084594726562854,-0.1123892822265625,0.9796035156250011
0.1468396946564886,0.7120152671755706,0.732984732824429,0.060502563476562854,-0.0479361572265625,1.0228164062500011
0.3987480916030535,0.9104885496183186,0.6108473282442763,0.009721313476562854,0.0270150146484375,1.0443007812500011
0.6506564885496184,1.2616335877862577,0.3742061068702305,0.008988891601562854,-0.0017935791015625015,1.1102187500000011
0.5437862595419849,1.8646870229007615,0.09939694656488704,0.048539672851562854,-0.0262076416015625,1.0540664062500011
0.5666870229007634,2.803618320610685,0.09939694656488704,0.041215454101562854,0.0038216552734374985,1.0518691406250011
0.8109618320610688,2.5822442748091583,0.26733587786259694,0.028764282226562854,0.0658333740234375,1.1251113281250011
0.6811908396946564,1.3608702290076318,0.465809160305345,0.06758264160156285,0.0511849365234375,1.0684707031250011
0.5590534351145038,-0.12004580152671945,0.5879465648854977,0.016801391601562854,-0.0288931884765625,1.1002089843750011
0.3376793893129772,-0.5169923664122156,0.732984732824429,0.014604125976562854,0.014807983398437499,1.0543105468750011
0.2537099236641222,-1.074244274809162,0.6719160305343527,-0.036421264648437146,0.0919564208984375,1.0882460937500011
1.589587786259542,-2.12004580152672,0.5116106870229022,-0.037641967773437146,-0.0364615478515625,1.0628554687500011
-1.0439999999999998,-2.7841679389313,0.3207709923664137,-0.037397827148437146,-0.0164420166015625,1.0491835937500011
-1.5630839694656489,-3.394854961832063,0.3436717557251924,-0.053022827148437146,0.0184700927734375,1.0328261718750011
-2.0210992366412213,-3.0742442748091623,0.3894732824427496,-0.017134155273437146,-0.0408560791015625,0.9805800781250011
-2.1966717557251907,-1.906305343511452,0.4734427480916046,-0.002485717773437146,0.0157845458984375,0.9603164062500011
-2.181404580152672,-0.8528702290076355,0.23680152671755875,0.003129516601562854,-0.014000610351562501,1.0059707031250011
-2.2119389312977096,-0.5017251908396965,-0.03800763358778475,0.06294396972656285,-0.0076529541015625015,1.0301406250000011
-2.181404580152672,-0.3566870229007653,-0.2517480916030519,0.07002404785156285,-0.0237662353515625,1.0264785156250011
-1.9905648854961833,-0.394854961832063,-0.2899160305343496,0.09541467285156285,-0.0286490478515625,1.0308730468750011
-1.3569770992366412,-0.7536335877862614,0.06886259541984888,0.10005334472656285,-0.010826782226562501,1.0660292968750011
-0.5859847328244274,-0.8910381679389332,0.44290839694656636,0.07319787597656285,0.0160286865234375,1.0386855468750011
-0.02109923664122132,-0.5246259541984752,0.6032137404580168,0.024858032226562854,-0.0049674072265625015,1.0274550781250011
0.24607633587786265,0.0020916030534331997,0.6566488549618336,-0.022505249023437146,-0.0027701416015625015,1.0384414062500011
0.17737404580152677,0.4143053435114485,0.5726793893129786,-0.019087280273437146,0.013098999023437499,1.0821425781250011
-0.3340763358778625,0.7654503816793874,0.26733587786259694,-0.043013061523437146,-0.0381705322265625,1.0648085937500011
-0.8378931297709923,0.6509465648854943,0.12229770992366565,-0.029341186523437146,-0.0179068603515625,1.1063125000000011
-1.1661374045801527,0.37613740458015077,-0.02274045801526564,0.001664672851562854,0.0179818115234375,1.1187636718750011
-1.5325496183206107,-0.013175572519085882,-0.18304580152671604,0.001176391601562854,-0.0013052978515625015,1.0872695312500011
-1.8302595419847327,-0.33378625954198665,-0.1219770992366397,0.029740844726562854,-0.0037467041015625015,1.0992324218750011
-2.03636641221374,-0.5475267175572538,0.1146641221374061,-0.013472045898437146,-0.0284049072265625,1.0696914062500011
-2.1508702290076336,-0.7841679389312997,0.4200076335877877,-0.002729858398437146,-0.013024047851562501,1.1107070312500011
-2.456213740458015,-0.94447328244275,0.5039770992366427,0.015336547851562854,-0.0281607666015625,1.1219375000000011
-2.0745343511450383,-0.4253893129771011,0.5497786259542,-0.001753295898437146,0.0006478271484374985,1.1131484375000011
-2.0745343511450383,-0.394854961832063,0.565045801526719,0.009965454101562854,0.0023568115234374985,1.0928847656250011
-1.944763358778626,0.2005648854961813,0.4887099236641236,0.015580688476562854,-0.0323111572265625,1.0689589843750011
-1.776824427480916,0.5211755725190821,0.5192442748091618,0.007279907226562854,0.00015954589843749853,1.1050917968750011
-1.6470534351145039,0.2921679389312958,0.4352748091603068,0.006547485351562854,-0.014244750976562501,1.1439101562500011
-1.70812213740458,-0.24981679389313166,0.3894732824427496,0.007524047851562854,-0.0252310791015625,1.0860488281250011
-1.509648854961832,-0.6772977099236661,0.4352748091603068,0.009477172851562854,0.0016243896484374985,1.1285292968750011
-1.425679389312977,-0.8147022900763377,0.42764122137404725,0.011430297851562854,-0.0284049072265625,1.0687148437500011
-1.3646106870229007,-0.47882442748091797,0.5268778625954214,-4.431152343714606e-05,-0.0430533447265625,1.0464980468750011
-1.2882748091603053,-0.09714503816794084,0.8780229007633602,0.005570922851562854,-0.0415885009765625,1.0357558593750011
-1.2730076335877862,0.29980152671755533,1.0077938931297725,-0.007124389648437146,-0.0457388916015625,1.0259902343750011
-1.3646106870229007,0.5211755725190821,1.0077938931297725,0.001664672851562854,-0.0472037353515625,1.0255019531250011
-1.3875114503816794,0.8799541984732806,0.9238244274809175,-0.003706420898437146,-0.0374381103515625,1.0062148437500011
-1.2882748091603053,1.0631603053435095,0.8703893129771008,0.002885375976562854,-0.0315787353515625,1.0374648437500011
-1.1203358778625954,0.9257557251908377,0.8474885496183222,0.026567016601562854,-0.0411002197265625,1.0482070312500011
-0.9142290076335877,0.8570534351145018,0.9085572519083984,0.045121704101562854,-0.0320670166015625,1.0357558593750011
-0.6623206106870227,0.9104885496183186,1.0459618320610702,0.022904907226562854,-0.0296256103515625,1.0130507812500011
-0.47148091603053427,0.5975114503816774,1.2062671755725205,0.042924438476562854,-0.0208365478515625,1.0352675781250011
-0.509648854961832,0.04789312977099047,1.3284045801526732,0.018754516601562854,-0.0237662353515625,1.0428359375000011
-0.5783511450381679,-0.2879847328244294,1.4047404580152687,0.018510375976562854,-0.013512329101562501,1.0494277343750011
-0.8226259541984733,-0.9063053435114523,1.3589389312977114,0.006791625976562854,-0.014977172851562501,1.0418593750000011
-1.143236641221374,-1.1505801526717576,1.3360381679389328,0.032914672851562854,-0.0506217041015625,1.0101210937500011
-1.2882748091603053,-0.8757709923664141,1.2749694656488564,0.020463500976562854,-0.0728385009765625,0.9908339843750011
-1.3493435114503816,-0.7001984732824447,1.3818396946564901,0.025346313476562854,-0.0494010009765625,0.9913222656250011
-1.2959083969465648,-0.8986717557251926,1.5268778625954214,0.017289672851562854,-0.0721060791015625,0.9901015625000011
-1.2730076335877862,-1.5169923664122156,1.6642824427480931,0.018754516601562854,-0.0579459228515625,0.9893691406250011
-1.1508702290076336,-2.0360763358778646,1.7406183206106884,0.043412719726562854,-0.0359732666015625,1.0084121093750011
-1.0134656488549618,-2.0895114503816816,1.732984732824429,0.024125610351562854,-0.0327994384765625,0.9749648437500011
-0.9371297709923663,-1.7536335877862614,1.5421450381679405,0.029008422851562854,-0.0684439697265625,0.9573867187500011
-0.7233893129770992,-1.3872213740458035,1.5955801526717572,0.050981079101562854,-0.0430533447265625,0.9429824218750011
-0.39514503816793883,-1.2192824427480935,1.6261145038167955,0.06929162597656285,-0.0430533447265625,0.9676406250000011
0.16210687022900766,-0.8070687022900782,1.7024503816793908,0.07295373535156285,-0.0345084228515625,0.9676406250000011
0.5437862595419849,-0.49409160305343697,1.6871832061068717,0.052201782226562854,-0.0315787353515625,0.9571425781250011
0.5972213740458017,-0.16584732824427673,1.519244274809162,0.042436157226562854,-0.0594107666015625,0.9305312500000011
0.3987480916030535,0.2921679389312958,1.4123740458015281,0.047563110351562854,-0.0686881103515625,0.9175917968750011
0.13157251908396955,0.39903816793892943,1.3436717557251923,0.060014282226562854,-0.0403677978515625,0.9354140625000011
-0.4409465648854961,0.2158320610687004,1.198633587786261,0.058793579101562854,-0.0730826416015625,0.8931777343750011
-0.9371297709923663,0.09369465648854772,1.1910000000000014,0.061723266601562854,-0.0882193603515625,0.8736464843750011
-1.1737709923664121,-0.3261526717557271,1.2520687022900778,0.055863891601562854,-0.0642935791015625,0.8985488281250011
-1.2501068702290075,-1.142946564885498,1.366572519083971,0.07685998535156285,-0.0442740478515625,0.9070937500000011
-1.1737709923664121,-1.5475267175572538,1.435274809160307,0.07832482910156285,-0.0457388916015625,0.8719375000000011
-0.8226259541984733,-1.6009618320610706,1.4887099236641237,0.08540490722656285,-0.0562369384765625,0.8819472656250011
-0.22720610687022894,-1.7230992366412232,1.4276412213740473,0.06660607910156285,-0.0467154541015625,0.8939101562500011
0.16210687022900766,-2.1047786259542005,1.3055038167938946,0.09077600097656285,-0.0611197509765625,0.8724257812500011
0.4674503816793894,-1.9979083969465667,1.183366412213742,0.09639123535156285,-0.0772330322265625,0.8336074218750011
0.9101984732824429,-1.4406564885496203,1.1757328244274825,0.07783654785156285,-0.0496451416015625,0.8697402343750011
1.1773740458015267,-1.1658473282442767,1.0917633587786275,0.09590295410156285,-0.0408560791015625,0.8665664062500011
1.055236641221374,-1.0818778625954217,0.9467251908396961,0.07905725097656285,-0.0484244384765625,0.8873183593750011
0.9636335877862596,-0.8681374045801544,0.816954198473284,0.057328735351562854,-0.0486685791015625,0.8943984375000011
0.9407328244274809,-0.5475267175572538,0.7024503816793908,0.045609985351562854,-0.0381705322265625,0.9009902343750011
0.8796641221374046,-0.2879847328244294,0.6337480916030549,0.034379516601562854,-0.0340201416015625,0.8958632812500011
0.8567633587786261,-0.24981679389313166,0.6261145038167953,0.035844360351562854,-0.0486685791015625,0.9102675781250011
0.673557251908397,-0.21164885496183394,0.5574122137404595,0.061479125976562854,-0.0689322509765625,0.8848769531250011
0.6124885496183208,-0.394854961832063,0.6108473282442763,0.06880334472656285,-0.0596549072265625,0.8909804687500011
0.6506564885496184,-0.5627938931297729,0.7100839694656503,0.06709436035156285,-0.0262076416015625,0.9168593750000011
0.6277557251908397,-0.22691603053435305,0.6032137404580168,0.08394006347656285,-0.0474478759765625,0.9100234375000011
0.47508396946564896,-0.005541984732826327,0.49634351145038313,0.07002404785156285,-0.0598990478515625,0.9217421875000011
0.5285190839694658,-0.3414198473282462,0.49634351145038313,0.07637170410156285,-0.0235220947265625,1.0040175781250011
0.5437862595419849,-0.6467633587786279,0.4200076335877877,0.09272912597656285,-0.0310904541015625,0.9998671875000011
0.4369160305343512,-0.9063053435114523,0.22916793893129925,0.08052209472656285,-0.0408560791015625,1.0032851562500011
0.31477862595419853,-1.5551603053435132,0.09939694656488704,0.09468225097656285,-0.0286490478515625,1.0381972656250011
0.2537099236641222,-1.975007633587788,0.04596183206107021,0.08052209472656285,0.008948608398437499,1.0672500000000011
-0.15850381679389305,-1.5551603053435132,-0.3051832061068687,0.060258422851562854,-0.0347525634765625,0.9959609375000011
-0.9065954198473283,-0.9826412213740476,-0.6792290076335863,0.053178344726562854,-0.0589224853515625,0.9603164062500011
-1.494381679389313,-1.2498167938931317,-0.8395343511450367,0.06831506347656285,-0.0652701416015625,1.0403945312500011
-1.792091603053435,-1.4559236641221394,-0.816633587786258,0.07856896972656285,-0.0196158447265625,1.0291640625000011
-2.0516335877862595,-1.1505801526717576,-0.8777022900763344,0.09492639160156285,-0.0708853759765625,1.0054824218750011
-2.1661374045801525,-1.0895114503816812,-0.8548015267175557,0.09126428222656285,-0.0474478759765625,1.0628554687500011
-2.227206106870229,-1.3185190839694676,-0.816633587786258,0.08784631347656285,-0.0494010009765625,1.0630996093750011
-2.1890381679389312,-1.494091603053437,-0.7860992366412198,0.08809045410156285,-0.0540396728515625,1.0872695312500011
-2.1203358778625954,-1.2727175572519103,-0.7555648854961817,0.06807092285156285,-0.0408560791015625,1.0711562500000011
-1.8684274809160306,-0.8223358778625973,-0.6868625954198458,0.052934204101562854,-0.0513541259765625,1.0728652343750011
-1.6165190839694656,-0.5551603053435135,-0.6028931297709909,0.043656860351562854,-0.0381705322265625,1.0894667968750011
-1.3569770992366412,-0.36432061068702476,-0.5876259541984717,0.046830688476562854,-0.0445181884765625,1.0948378906250011
-0.9981984732824427,-0.37958778625954387,-0.534190839694655,0.033647094726562854,-0.0518424072265625,1.1180312500000011
-0.8302595419847327,-0.6009618320610706,-0.48838931297709776,0.041703735351562854,-0.0408560791015625,1.0899550781250011
-0.6852213740458015,-0.47882442748091797,-0.3967862595419832,0.013627563476562854,-0.0503775634765625,1.0804335937500011
-0.7004885496183205,-0.06661068702290268,-0.34335114503816644,0.002641235351562854,-0.0689322509765625,1.0279433593750011
-0.776824427480916,0.15476335877862404,-0.19831297709923512,0.027299438476562854,-0.0716177978515625,1.0142714843750011
-0.8226259541984733,0.1852977099236622,-0.07617557251908244,0.018754516601562854,-0.0799185791015625,1.0164687500000011
-0.7997251908396945,0.2539999999999981,0.08412977099236793,0.034379516601562854,-0.0718619384765625,1.0067031250000011
-0.6394198473282442,0.3532366412213721,0.23680152671755875,0.049027954101562854,-0.0808951416015625,1.0027968750000011
-0.38751145038167933,0.48300763358778437,0.31313740458015416,0.059281860351562854,-0.0899283447265625,0.9932753906250011
-0.1661374045801526,0.9104885496183186,0.23680152671755875,0.06855920410156285,-0.0913931884765625,0.9796035156250011
0.07813740458015273,1.0707938931297691,0.12229770992366565,0.08613732910156285,-0.0777213134765625,0.9864394531250011
0.3224122137404581,1.1700305343511432,0.10703053435114654,0.09761193847656285,-0.0867545166015625,0.9588515625000011
0.757526717557252,1.292167938931296,0.19100000000000153,0.10420373535156285,-0.0796744384765625,0.9825332031250011
1.0170687022900764,1.4982748091603035,0.2902366412213755,0.10200646972656285,-0.0779654541015625,0.9673964843750011
1.1163053435114505,1.6585801526717538,0.29787022900763505,0.08149865722656285,-0.0840689697265625,0.9717910156250011
1.1468396946564885,1.6967480916030515,0.4200076335877877,0.06709436035156285,-0.0686881103515625,0.9766738281250011
1.3147786259541985,1.7272824427480897,0.5268778625954214,0.06929162597656285,-0.0679556884765625,0.9918105468750011
1.490351145038168,1.6585801526717538,0.6108473282442763,0.06904748535156285,-0.0594107666015625,0.9796035156250011
1.6659236641221373,1.589877862595418,0.7253511450381694,0.056840454101562854,-0.0723502197265625,0.9888808593750011
1.8796641221374044,1.4524732824427462,0.8627557251908411,0.06538537597656285,-0.0577017822265625,0.9805800781250011
1.9865343511450384,1.22346564885496,0.984893129770994,0.07978967285156285,-0.0647818603515625,0.9847304687500011
2.0018015267175575,1.0707938931297691,1.0001603053435129,0.09297326660156285,-0.0843131103515625,0.9783828125000011
1.8262290076335879,1.1165954198473262,0.931458015267177,0.057572875976562854,-0.0640494384765625,0.9735000000000011
1.406381679389313,1.1471297709923645,0.7177175572519099,0.055131469726562854,-0.0706412353515625,0.9739882812500011
0.9025648854961832,1.322702290076334,0.6184809160305359,0.029252563476562854,-0.0662467041015625,0.9742324218750011
0.7193587786259543,1.6585801526717538,0.6261145038167953,0.045121704101562854,-0.0569693603515625,0.9913222656250011
0.6353893129770993,1.8341526717557233,0.5726793893129786,0.053422485351562854,-0.0430533447265625,1.0089003906250011
0.5285190839694658,2.2234656488549596,0.5039770992366427,0.047318969726562854,-0.0586783447265625,0.9791152343750011
0.49035114503816807,2.620412213740456,0.41237404580152826,0.041703735351562854,-0.0559927978515625,0.9984023437500011
0.6277557251908397,2.7807175572519065,0.3360381679389328,0.045609985351562854,-0.0435416259765625,1.0157363281250011
0.757526717557252,2.7807175572519065,0.2749694656488565,0.039262329101562854,-0.0481802978515625,0.9915664062500011
0.9941679389312976,2.7272824427480895,0.26733587786259694,0.035844360351562854,-0.0274283447265625,1.0186660156250011
1.2766106870229008,2.8646870229007613,0.2215343511450397,0.037553344726562854,-0.0315787353515625,1.0074355468750011
1.4445496183206108,3.101328244274807,0.21390076335878014,0.039506469726562854,-0.0396353759765625,1.0352675781250011
1.505618320610687,3.5288091603053413,0.12229770992366565,0.026567016601562854,-0.0362174072265625,1.0360000000000011
1.4521832061068702,3.8646870229007613,-0.04564122137404428,0.022904907226562854,-0.0474478759765625,1.0123183593750011
1.375847328244275,4.162396946564884,-0.16777862595419696,0.014848266601562854,-0.0415885009765625,1.0172011718750011
1.3300458015267176,4.215832061068701,-0.1219770992366397,0.023881469726562854,-0.0313345947265625,1.0167128906250011
1.3682137404580152,4.208198473282441,0.007793893129772522,0.016313110351562854,-0.0367056884765625,1.0062148437500011
1.3147786259541985,4.238732824427479,0.19863358778626108,0.004838500976562854,-0.0269400634765625,0.9847304687500011
1.2537099236641223,4.200564885496181,0.3894732824427496,-0.007612670898437146,-0.0213248291015625,0.9937636718750011
1.0323358778625955,4.124229007633586,0.4887099236641236,-0.027876342773437146,-0.0288931884765625,1.0032851562500011
0.7727938931297711,4.002091603053433,0.5955801526717572,-0.001020874023437146,-0.0306021728515625,0.9818007812500011
0.4216488549618322,4.032625954198472,0.6032137404580168,-0.020796264648437146,-0.0276724853515625,0.9830214843750011
0.10103816793893139,2.170030534351143,0.6108473282442763,-0.033491577148437146,-0.0218131103515625,0.9747207031250011
-0.10506870229007625,4.337969465648853,0.5726793893129786,-0.035688842773437146,-0.0262076416015625,1.0062148437500011
-0.2959083969465648,4.658580152671754,0.4734427480916046,-0.030317749023437146,-0.0244986572265625,0.9962050781250011
-2.295908396946565,4.795984732824426,0.41237404580152826,-0.042768920898437146,-0.0171744384765625,1.0069472656250011
-0.2730076335877862,4.88758778625954,0.3207709923664137,-0.031782592773437146,-0.0179068603515625,1.0015761718750011
-0.05926717557251898,5.101328244274807,0.26733587786259694,-0.029585327148437146,-0.0196158447265625,0.9993789062500011
0.2231755725190841,5.360870229007632,0.22916793893129925,-0.039350952148437146,-0.012291625976562501,0.9913222656250011
0.5819541984732826,5.689114503816792,0.26733587786259694,-0.055464233398437146,0.0033333740234374985,0.9988906250000011
0.8109618320610688,5.925755725190838,0.2444351145038183,-0.07450720214843715,-0.011070922851562501,0.9752089843750011
0.8262290076335879,5.971557251908395,0.20626717557252058,-0.07353063964843715,-0.0174185791015625,0.9798476562500011
0.7956946564885496,6.307435114503815,0.19100000000000153,-0.08451696777343715,-0.012047485351562501,0.9649550781250011
0.7804274809160305,6.4906412213740445,0.14519847328244426,-0.10307165527343715,-0.010826782226562501,0.9774062500000011
0.8033282442748091,6.337969465648853,0.08412977099236793,-0.08549353027343715,-0.0223013916015625,1.0023085937500011
0.9254656488549617,6.55934351145038,-0.02274045801526564,-0.09599157714843715,-0.0193717041015625,0.9881484375000011
0.9789007633587787,6.635679389312975,-0.1219770992366397,-0.09647985839843715,-0.0183951416015625,0.9742324218750011
0.956,6.56697709923664,-0.18304580152671604,-0.11332556152343715,-0.0230338134765625,0.9818007812500011
1.0094351145038167,6.467740458015266,-0.1219770992366397,-0.10648962402343715,-0.0201041259765625,0.9852187500000011
1.0857709923664123,6.452473282442747,0.007793893129772522,-0.11186071777343715,-0.0044791259765625015,0.9583632812500011
1.0705038167938932,6.521175572519082,0.1146641221374061,-0.12089392089843715,0.0016243896484374985,0.9617812500000011
0.9789007633587787,6.6127786259541965,0.16809923664122292,-0.12455603027343715,-0.0191275634765625,0.9534804687500011
1.039969465648855,6.6051450381679375,0.2597022900763374,-0.14799353027343715,-0.009361938476562501,0.9542128906250011
1.1163053435114505,6.528809160305342,0.23680152671755875,-0.15605017089843715,0.0030892333984374985,0.9708144531250011
1.2155419847328244,6.979190839694655,0.22916793893129925,-0.17997595214843715,0.0008919677734374985,0.9522597656250011
1.2537099236641223,7.589877862595419,0.19100000000000153,-0.17289587402343715,-0.0025260009765625015,0.9371230468750011
1.2689770992366411,7.811251908396945,0.1375648854961847,-0.15507360839843715,-0.012047485351562501,0.9495742187500011
1.1010381679389314,7.857053435114502,0.03069465648855113,-0.18900915527343715,-0.011559204101562501,0.9346816406250011
0.9330992366412214,7.780717557251907,0.06122900763358932,-0.22270056152343715,-0.00032873535156250147,0.9363906250000011
0.7269923664122138,7.780717557251907,-0.3128167938931282,-0.25199743652343715,0.014807983398437499,1.0071914062500011
0.16974045801526721,7.429572519083968,0.06886259541984888,-0.30692907714843715,0.0602181396484375,0.7955214843750011
0.3834809160305344,9.093694656488546,0.29787022900763505,-0.20780798339843715,0.0013802490234374985,0.8914687500000011
0.5208854961832061,7.55934351145038,0.465809160305345,-0.17704626464843715,-0.0296256103515625,0.9756972656250011
0.8109618320610688,7.9410229007633575,0.4352748091603068,-0.22904821777343715,-0.00032873535156250147,0.8890273437500011
1.1010381679389314,8.444839694656485,0.3360381679389328,-0.26078649902343715,-0.0227896728515625,0.8836562500000011
1.139206106870229,8.108961832061066,0.3207709923664137,-0.24272009277343715,-8.459472656250147e-05,0.9232070312500011
1.0781374045801526,8.20819847328244,0.21390076335878014,-0.25688024902343715,-0.0042349853515625015,0.9024550781250011
1.1621068702290076,8.276900763358777,0.22916793893129925,-0.27445837402343715,0.0060189208984374985,0.9102675781250011
1.2995114503816794,8.261633587786257,0.35130534351145193,-0.29130407714843715,0.0160286865234375,0.8946425781250011
1.4674503816793893,8.086061068702287,0.5726793893129786,-0.27372595214843715,0.0174935302734375,0.8758437500000011
1.5361526717557252,7.818885496183205,0.7558854961832076,-0.28227087402343715,-0.0013052978515625015,0.8821914062500011
1.688824427480916,7.475374045801525,0.9085572519083984,-0.29789587402343715,0.0182259521484375,0.8985488281250011
1.6277557251908397,6.986824427480914,0.9467251908396961,-0.31596228027343715,0.0209114990234375,0.8924453125000011
1.505618320610687,6.536442748091601,0.9238244274809175,-0.32206579589843715,0.0235970458984375,0.8941542968750011
1.421648854961832,6.39140458015267,0.9390916030534366,-0.32890173339843715,0.0209114990234375,0.8885390625000011
1.1544732824427482,6.620412213740456,0.8780229007633602,-0.33427282714843715,0.0067513427734374985,0.8367812500000011
0.7880610687022902,6.689114503816792,0.7711526717557267,-0.33598181152343715,0.0052864990234374985,0.8377578125000011
0.3834809160305344,6.795984732824426,0.7406183206106886,-0.33622595214843715,0.010657592773437499,0.8211562500000011
0.1392061068702291,7.116595419847327,0.7482519083969481,-0.35136267089843715,0.0231087646484375,0.8301894531250011
0.03233587786259551,7.185297709923662,0.8474885496183222,-0.36601110839843715,0.0248177490234375,0.8475234375000011
0.10867175572519089,6.811251908396945,0.8780229007633602,-0.36186071777343715,0.0350716552734375,0.8509414062500011
0.29187786259541987,6.3837709923664105,1.0001603053435129,-0.38578649902343715,0.0526497802734375,0.8489882812500011
0.49035114503816807,6.246366412213739,1.099396946564887,-0.38188024902343715,0.0460579833984375,0.8443496093750011
0.5743206106870229,5.971557251908395,1.1528320610687037,-0.38065954589843715,0.0372689208984375,0.8372695312500011
0.505618320610687,5.4906412213740445,1.2062671755725205,-0.37382360839843715,0.0336068115234375,0.8218886718750011
0.3376793893129772,5.475374045801525,1.267335877862597,-0.37870642089843715,0.0265267333984375,0.8123671875000011
0.4521832061068703,5.414305343511448,1.2597022900763373,-0.37357946777343715,0.0206673583984375,0.8126113281250011
0.6124885496183208,5.322702290076334,1.2291679389312993,-0.39604040527343715,0.0450814208984375,0.7874648437500011
0.8338625954198473,5.56697709923664,1.1299312977099252,-0.40482946777343715,0.0504525146484375,0.8128554687500011
0.673557251908397,4.147129770992365,0.8703893129771008,-0.40434118652343715,0.0194466552734375,0.7794082031250011
0.505618320610687,6.681480916030533,0.6871832061068717,-0.42680212402343715,0.0050423583984374985,0.7823378906250011
0.49035114503816807,7.22346564885496,0.5039770992366427,-0.42606970214843715,0.0260384521484375,0.7955214843750011
0.589587786259542,7.337969465648853,0.45817557251908547,-0.42191931152343715,0.0318978271484375,0.7828261718750011
0.8033282442748091,7.1700305343511435,0.465809160305345,-0.42802282714843715,0.0404427490234375,0.7999160156250011
1.139206106870229,6.9486564885496165,0.5345114503816809,-0.43241735839843715,0.0524056396484375,0.7899062500000011
1.2842442748091603,6.658580152671754,0.6184809160305359,-0.44462438964843715,0.0484993896484375,0.7581679687500011
1.307145038167939,6.185297709923662,0.6566488549618336,-0.43607946777343715,0.0511849365234375,0.7598769531250011
1.2155419847328244,5.72728244274809,0.7711526717557267,-0.46537634277343715,0.0399544677734375,0.7484023437500011
1.1544732824427482,5.330335877862594,0.7787862595419862,-0.47611853027343715,0.0370247802734375,0.7589003906250011
1.0247022900763358,5.147129770992365,0.732984732824429,-0.49320837402343715,0.0443489990234375,0.7195937500000011
0.9101984732824429,5.0631603053435095,0.6871832061068717,-0.46684118652343715,0.0431282958984375,0.7191054687500011
0.7727938931297711,4.910488549618319,0.5803129770992381,-0.45170446777343715,0.0370247802734375,0.7198378906250011
0.7727938931297711,4.872320610687021,0.4887099236641236,-0.46830603027343715,0.0553353271484375,0.7339980468750011
0.8185954198473282,5.269267175572518,0.3742061068702305,-0.5027298583984372,0.0726693115234375,0.7254531250000011
0.757526717557252,5.429572519083968,0.2444351145038183,-0.49369665527343715,0.0565560302734375,0.6934707031250011
0.7269923664122138,5.55934351145038,0.1375648854961847,-0.49223181152343715,0.0404427490234375,0.6954238281250011
0.7117251908396947,5.513541984732822,0.05359541984732977,-0.48808142089843715,0.0536263427734375,0.6981093750000011
0.4827175572519085,5.429572519083968,-0.04564122137404428,-0.49613806152343715,0.0414193115234375,0.6744277343750011
0.24607633587786265,5.337969465648853,-0.030374045801525196,-0.5110306396484372,0.0506966552734375,0.6693007812500011
0.24607633587786265,4.925755725190838,0.06886259541984888,-0.5037064208984372,0.0514290771484375,0.7022597656250011
0.3529465648854963,4.505908396946563,0.17573282442748242,-0.5154251708984372,0.0685189208984375,0.7007949218750011
0.5590534351145038,4.292167938931296,0.29787022900763505,-0.5288529052734372,0.0809700927734375,0.7039687500000011
0.7956946564885496,4.215832061068701,0.48107633587786414,-0.5383743896484372,0.0719368896484375,0.6717421875000011
0.9636335877862596,3.9181221374045783,0.5574122137404595,-0.5366654052734372,0.0565560302734375,0.6631972656250011
0.9712671755725191,3.902854961832059,0.4887099236641236,-0.5256790771484372,0.0533822021484375,0.6629531250000011
0.8796641221374046,3.9944580152671736,0.29787022900763505,-0.5273880615234372,0.0401986083984375,0.6546523437500011
0.757526717557252,4.040259541984731,0.21390076335878014,-0.5288529052734372,0.0382454833984375,0.6402480468750011
0.8949312977099237,4.002091603053433,0.19100000000000153,-0.5425247802734372,0.0638802490234375,0.6651503906250011
1.0170687022900764,4.192931297709922,0.17573282442748242,-0.5422806396484372,0.0538704833984375,0.6339003906250011
1.0094351145038167,4.39140458015267,0.12229770992366565,-0.5427689208984372,0.0546029052734375,0.6304824218750011
0.9101984732824429,4.513541984732822,0.023061068702291604,-0.5376419677734372,0.0531380615234375,0.6277968750000011
0.8185954198473282,4.536442748091601,0.03069465648855113,-0.5454544677734372,0.0621712646484375,0.6307265625000011
0.7727938931297711,4.544076335877861,0.05359541984732977,-0.5618118896484372,0.0782845458984375,0.6434218750000011
0.6659236641221373,4.513541984732822,0.07649618320610838,-0.5745072021484372,0.0660775146484375,0.6483046875000011
0.4369160305343512,4.360870229007632,0.16809923664122292,-0.5688919677734372,0.0807259521484375,0.6170546875000011
0.33004580152671764,4.040259541984731,0.2749694656488565,-0.5625443115234372,0.0704720458984375,0.6417128906250011
0.2384427480916031,3.8265190839694636,0.39710687022900915,-0.5742630615234372,0.0692513427734375,0.6392714843750011
0.15447328244274816,3.8417862595419825,0.465809160305345,-0.5835404052734372,0.0582650146484375,0.6055800781250011
0.12393893129771,3.620412213740456,0.5803129770992381,-0.5747513427734372,0.0719368896484375,0.5987441406250011
0.19264122137404588,3.2769007633587766,0.6566488549618336,-0.5762161865234372,0.0746224365234375,0.6285292968750011
0.3376793893129772,3.101328244274807,0.6795496183206122,-0.5623001708984372,0.0714486083984375,0.6190078125000011
0.3529465648854963,3.2081984732824407,0.6337480916030549,-0.5810989990234372,0.0729134521484375,0.6011855468750011
0.33004580152671764,3.5593435114503795,0.5726793893129786,-0.5942825927734372,0.0724251708984375,0.6109511718750011
0.39111450381679397,3.857053435114502,0.5116106870229022,-0.5801224365234372,0.0746224365234375,0.6004531250000011
0.4521832061068703,3.948656488549616,0.35893893129771137,-0.5806107177734372,0.0753548583984375,0.6165664062500011
0.5819541984732826,3.8646870229007613,0.29787022900763505,-0.5837845458984372,0.0853646240234375,0.6155898437500011
0.8262290076335879,3.6280458015267154,0.3360381679389328,-0.5789017333984372,0.0851204833984375,0.6207167968750011
1.0247022900763358,3.452473282442746,0.3207709923664137,-0.5886673583984372,0.0863411865234375,0.6011855468750011
1.0628702290076335,3.3303358778625936,0.3055038167938946,-0.6025833740234372,0.0736458740234375,0.5941054687500011
0.9178320610687023,3.5135419847328224,0.2749694656488565,-0.6167435302734372,0.0753548583984375,0.5652968750000011
0.7193587786259543,3.437206106870227,0.21390076335878014,-0.6096634521484372,0.0792611083984375,0.5667617187500011
0.5437862595419849,3.315068702290074,0.28260305343511605,-0.6099075927734372,0.0692513427734375,0.5674941406250011
0.4369160305343512,3.4753740458015248,0.3360381679389328,-0.6265091552734372,0.0904915771484375,0.5648085937500011
0.26134351145038176,3.4219389312977078,0.3207709923664137,-0.6284622802734372,0.0865853271484375,0.5670058593750011
0.009435114503816844,3.253999999999998,0.2597022900763374,-0.5950150146484372,0.0821907958984375,0.5738417968750011
-0.13560305343511442,3.3456030534351124,0.16046564885496337,-0.6162552490234372,0.0760872802734375,0.5545546875000011
-0.14323664122137397,3.5898778625954177,0.16046564885496337,-0.6116165771484372,0.0746224365234375,0.5394179687500011
0.03996946564885506,3.5898778625954177,0.19863358778626108,-0.6194290771484372,0.0848763427734375,0.5513808593750011
0.2231755725190841,3.536442748091601,0.17573282442748242,-0.6147904052734372,0.0843880615234375,0.5501601562500011
0.27661068702290087,3.5440763358778606,0.1375648854961847,-0.6379837646484372,0.0856087646484375,0.5411269531250011
0.1468396946564886,3.483007633587784,0.06122900763358932,-0.6138138427734372,0.0797493896484375,0.5469863281250011
0.10867175572519089,3.38377099236641,-0.02274045801526564,-0.6321243896484372,0.0677864990234375,0.5323378906250011
0.03996946564885506,3.1776641221374025,-0.03800763358778475,-0.6140579833984372,0.0843880615234375,0.5228164062500011
0.13157251908396955,2.986824427480914,0.03832824427481066,-0.6294388427734372,0.0843880615234375,0.5132949218750011
0.3529465648854963,2.948656488549616,0.18336641221374197,-0.6404251708984372,0.0885384521484375,0.49840234375000114
0.5514198473282443,2.689114503816792,0.2902366412213755,-0.6321243896484372,0.0721810302734375,0.5201308593750011
0.6277557251908397,2.429572519083967,0.35893893129771137,-0.6372513427734372,0.0900032958984375,0.5193984375000011
0.5743206106870229,2.368503816793891,0.4047404580152687,-0.6433548583984372,0.0934212646484375,0.5123183593750011
0.45981679389312985,2.2769007633587766,0.42764122137404725,-0.6435989990234372,0.0836556396484375,0.5303847656250011
0.27661068702290087,2.2234656488549596,0.48107633587786414,-0.6506790771484372,0.0780404052734375,0.5003554687500011
0.18500763358778632,2.2310992366412195,0.4505419847328259,-0.6435989990234372,0.0775521240234375,0.5040175781250011
0.1468396946564886,2.1852977099236623,0.41237404580152826,-0.6328568115234372,0.0821907958984375,0.49913476562500114
0.15447328244274816,2.101328244274807,0.38183969465649004,-0.6284622802734372,0.0807259521484375,0.5020644531250011
0.15447328244274816,1.9868244274809141,0.35893893129771137,-0.6323685302734372,0.0773079833984375,0.49327539062500114
0.16210687022900766,2.238732824427479,0.32840458015267326,-0.6340775146484372,0.0753548583984375,0.49937890625000114
0.207908396946565,2.498274809160303,0.22916793893129925,-0.6404251708984372,0.0956185302734375,0.5274550781250011
0.26134351145038176,2.71964885496183,0.10703053435114654,-0.6558060302734372,0.0860970458984375,0.5240371093750011
0.307145038167939,2.9104885496183184,-0.007473282442746559,-0.6409134521484372,0.0992806396484375,0.5220839843750011
0.2842442748091604,2.8952213740457995,-0.1219770992366397,-0.6387161865234372,0.1024544677734375,0.5069472656250011
0.207908396946565,2.8646870229007613,-0.083809160305342,-0.6511673583984372,0.1127083740234375,0.49571679687500114
0.2689770992366413,2.8646870229007613,-0.07617557251908244,-0.6623978271484372,0.1100228271484375,0.5115859375000011
0.33004580152671764,2.857053435114502,-0.015106870229006114,-0.6626419677734372,0.1053841552734375,0.5098769531250011
0.24607633587786265,2.8723206106870207,-0.534190839694655,-0.6660599365234372,0.0863411865234375,0.49083398437500114
0.5208854961832061,4.040259541984731,-0.5189236641221359,-0.5190872802734372,0.0035775146484374985,0.5611464843750011
-0.44858015267175566,3.5288091603053413,-0.4807557251908382,-0.7026810302734372,0.1903450927734375,0.48570703125000114
0.03996946564885506,2.7501832061068683,-0.267015267175571,-0.6184525146484372,0.0648568115234375,0.5801894531250011
0.11630534351145044,3.101328244274807,-0.25938167938931145,-0.6838822021484372,0.1122200927734375,0.42540429687500114
0.42928244274809163,2.4753740458015248,-0.05327480916030383,-0.6721634521484372,0.1095345458984375,0.49107812500000114
0.8262290076335879,2.2921679389312954,0.00016030534351296755,-0.6658157958984372,0.1036751708984375,0.48033593750000114
1.0934045801526717,2.2616335877862577,0.09176335877862749,-0.6604447021484372,0.0843880615234375,0.42516015625000114
1.2308091603053435,2.0326259541984713,0.17573282442748242,-0.6645950927734372,0.0765755615234375,0.43541406250000114
1.1621068702290076,2.070793893129769,0.20626717557252058,-0.6606888427734372,0.0838997802734375,0.42393945312500114
0.956,2.2998015267175553,0.12229770992366565,-0.6865677490234372,0.0699837646484375,0.44127343750000114
0.6124885496183208,2.269267175572517,0.03832824427481066,-0.6902298583984372,0.0909798583984375,0.45323632812500114
0.33004580152671764,2.368503816793891,0.01542748091603205,-0.7161087646484372,0.0924447021484375,0.45225976562500114
0.17737404580152677,2.3456030534351124,0.023061068702291604,-0.6882767333984372,0.0929329833984375,0.45787500000000114
0.10103816793893139,2.3761374045801507,0.08412977099236793,-0.6914505615234372,0.0919564208984375,0.43248437500000114
0.10867175572519089,2.337969465648853,0.14519847328244426,-0.6811966552734372,0.0926888427734375,0.43516992187500114
0.055236641221374116,2.406671755725189,0.10703053435114654,-0.6948685302734372,0.0892708740234375,0.43028710937500114
-0.02109923664122132,2.452473282442746,0.09176335877862749,-0.6941361083984372,0.0904915771484375,0.43126367187500114
-0.05163358778625948,2.5898778625954177,0.1299312977099252,-0.7043900146484372,0.1075814208984375,0.45470117187500114
-0.04399999999999993,2.7120152671755706,0.12229770992366565,-0.7087845458984372,0.0914681396484375,0.44395898437500114
-0.03636641221374037,2.8646870229007613,0.12229770992366565,-0.7021927490234372,0.1005013427734375,0.45470117187500114
0.09340458015267183,3.0631603053435095,0.20626717557252058,-0.7134232177734372,0.1078255615234375,0.45958398437500114
0.18500763358778632,3.101328244274807,0.22916793893129925,-0.7163529052734372,0.1002572021484375,0.44493554687500114
0.24607633587786265,3.0784274809160284,0.2444351145038183,-0.7021927490234372,0.0917122802734375,0.42638085937500114
0.3529465648854963,3.0097251908396925,0.2749694656488565,-0.6987747802734372,0.0980599365234375,0.44273828125000114
0.49035114503816807,2.9104885496183184,0.23680152671755875,-0.6970657958984372,0.0956185302734375,0.43541406250000114
0.5514198473282443,2.948656488549616,0.20626717557252058,-0.7114700927734372,0.1056282958984375,0.42589257812500114
0.5666870229007634,3.0402595419847307,0.17573282442748242,-0.7170853271484372,0.0941536865234375,0.41368554687500114
0.4216488549618322,3.1623969465648836,0.1375648854961847,-0.7170853271484372,0.1102669677734375,0.42247460937500114
0.16974045801526721,3.353236641221372,0.04596183206107021,-0.7248978271484372,0.1141732177734375,0.40904687500000114
-0.05163358778625948,3.5440763358778606,-0.05327480916030383,-0.7253861083984372,0.0948861083984375,0.39537500000000114
-0.3111755725190839,3.536442748091601,-0.07617557251908244,-0.7222122802734372,0.0875618896484375,0.39683984375000114
-0.4638473282442747,3.4753740458015248,-0.06854198473282291,-0.7104935302734372,0.0980599365234375,0.40831445312500114
-0.4409465648854961,3.5288091603053413,-0.007473282442746559,-0.7178177490234372,0.1080697021484375,0.38609765625000114
-0.2959083969465648,3.5135419847328224,0.06886259541984888,-0.7185501708984372,0.1041634521484375,0.38878320312500114
-0.1279694656488549,3.536442748091601,0.09176335877862749,-0.7117142333984372,0.1024544677734375,0.37926171875000114
0.11630534351145044,3.5135419847328224,0.08412977099236793,-0.7043900146484372,0.1131966552734375,0.38853906250000114
0.2995114503816794,3.6433129770992347,0.09176335877862749,-0.7139114990234372,0.1036751708984375,0.36681054687500114
0.307145038167939,3.902854961832059,0.023061068702291604,-0.7275833740234372,0.0970833740234375,0.36192773437500114
0.2384427480916031,3.9181221374045783,-0.04564122137404428,-0.7034134521484372,0.0939095458984375,0.36632226562500114
0.17737404580152677,3.9181221374045783,-0.07617557251908244,-0.7300247802734372,0.0963509521484375,0.36681054687500114
0.17737404580152677,3.8112519083969443,0.00016030534351296755,-0.7202591552734372,0.0873177490234375,0.35387109375000114
0.207908396946565,3.5822442748091583,0.10703053435114654,-0.7305130615234372,0.1105111083984375,0.36290429687500114
0.2689770992366413,3.3608702290076313,0.20626717557252058,-0.7197708740234372,0.0987923583984375,0.34972070312500114
0.3529465648854963,3.2616335877862577,0.3055038167938946,-0.7292923583984372,0.0980599365234375,0.34386132812500114
0.34531297709923675,3.192931297709922,0.35130534351145193,-0.7180618896484372,0.1073372802734375,0.33409570312500114
0.3834809160305344,3.38377099236641,0.35130534351145193,-0.7019486083984372,0.0912239990234375,0.30894921875000114
0.4521832061068703,3.5288091603053413,0.3665725190839709,-0.7236771240234372,0.1024544677734375,0.31212304687500114
0.505618320610687,3.5898778625954177,0.3055038167938946,-0.7253861083984372,0.0970833740234375,0.32091210937500114
0.505618320610687,3.505908396946563,0.32840458015267326,-0.7180618896484372,0.0956185302734375,0.30797265625000114
0.49035114503816807,3.3914045801526695,0.35130534351145193,-0.7273392333984372,0.0878060302734375,0.30308984375000114
0.4674503816793894,3.38377099236641,0.3894732824427496,-0.7378372802734372,0.0931771240234375,0.30431054687500114
0.33004580152671764,3.2921679389312954,0.3894732824427496,-0.7307572021484372,0.0924447021484375,0.31261132812500114
0.09340458015267183,3.2081984732824407,0.3742061068702305,-0.7349075927734372,0.0873177490234375,0.28892968750000114
-0.06690076335877854,3.185297709923662,0.3894732824427496,-0.7295364990234372,0.0841439208984375,0.31236718750000114
-0.12033587786259534,3.116595419847326,0.3207709923664137,-0.7324661865234372,0.1109993896484375,0.30894921875000114
-0.24247328244274802,3.05552671755725,0.2215343511450397,-0.7241654052734372,0.0868294677734375,0.27476953125000114
-0.22720610687022894,3.101328244274807,0.16809923664122292,-0.7227005615234372,0.0797493896484375,0.23936914062500114
-0.19667175572519077,3.2463664122137383,0.21390076335878014,-0.7217239990234372,0.0868294677734375,0.25279687500000114
-0.03636641221374037,3.3303358778625936,0.3055038167938946,-0.7329544677734372,0.0904915771484375,0.26866601562500114
