Number,Gyro_X,Gyro_Y,Gyro_Z,Acc_X,Acc_Y,Acc_Z
1,0.002381679389311886,1.8992824427480917,-0.07301908396946666,0.003492858886718738,0.003369140625000027,0.9959533691406238
2,-0.08922137404580255,0.0672213740458015,-0.08828625954198577,0.001539733886718738,-0.002246093749999973,0.9993713378906238
3,-0.066320610687024,0.02905343511450379,0.04148473282442655,-0.013963195800781262,0.00031738281250002706,0.9969299316406238
4,-0.012885496183207001,0.05958778625954196,0.07201908396946477,-0.0002913208007812619,-0.005175781249999973,1.003277587890624
5,-0.10448854961832166,-0.001480916030534376,0.05675190839694566,0.0008073120117187381,-0.001635742187499973,1.001080322265624
6,0.048183206106869214,0.1053893129770992,0.11018702290076243,-0.002122375488281262,-0.001635742187499973,0.9961975097656238
7,0.1321526717557242,0.07485496183206104,0.08728625954198366,0.001539733886718738,-0.001879882812499973,0.9983947753906238
8,0.06345038167938832,0.03668702290076333,0.09491984732824332,0.002028015136718738,-0.0005371093749999729,0.9994934082031238
9,0.06345038167938832,-0.07781679389312979,-0.06538549618320699,0.015577819824218738,0.004833984375000027,0.9987609863281238
10,-0.05868702290076433,0.05195419847328242,-0.004316793893130777,-0.001634094238281262,-0.003710937499999973,1.001080322265624
11,-0.051053435114504886,-0.08545038167938934,-0.09591984732824521,-0.002244445800781262,0.003491210937500027,0.9952209472656238
12,-0.05868702290076433,-0.10071755725190842,0.018583969465647776,-4.718017578126191e-05,-0.004077148437499973,0.9894836425781238
13,0.07871755725190743,-0.001480916030534376,0.0033167938931288887,0.016798522949218738,-0.002001953124999973,0.9969299316406238
14,-0.012885496183207001,-0.001480916030534376,0.05675190839694566,-0.003587219238281262,0.0009277343750000271,0.9990051269531238
15,-0.012885496183207001,0.04432061068702288,0.15598854961831954,-0.003953430175781262,-0.00017089843749997294,1.002789306640624
16,-0.020519083969466667,1.891648854961832,-0.09591984732824521,0.007765319824218738,0.002148437500000027,1.018536376953124
17,0.07871755725190743,0.09775572519083967,0.0033167938931288887,-0.004441711425781262,-0.001757812499999973,0.9983947753906238
18,0.06345038167938832,0.11302290076335876,-0.02721755725190933,-0.002732727050781262,0.0006835937500000271,0.9975402832031238
19,0.07871755725190743,0.1053893129770992,-0.01195038167939022,0.0009293823242187381,0.00031738281250002706,1.005230712890624
20,0.07108396946564777,1.891648854961832,0.026217557251907442,0.016310241699218738,0.002636718750000027,1.016094970703124
21,-0.02815267175572611,0.13592366412213736,0.11018702290076243,-0.003465148925781262,-0.00029296874999997294,1.000103759765624
22,0.032916030534350105,0.04432061068702288,0.11782061068702188,0.003614929199218738,-0.001391601562499973,0.9997375488281238
23,0.04054961832060977,-0.009114503816793918,0.05675190839694566,-0.002244445800781262,0.002270507812500027,1.000103759765624
24,0.002381679389311886,-0.07018320610687026,-0.08828625954198577,0.002760437011718738,7.324218750002706e-05,0.9963195800781238
25,-0.05868702290076433,-0.07018320610687026,-0.02721755725190933,-0.002000305175781262,0.003125000000000027,1.003521728515624
26,0.08635114503816688,0.1053893129770992,-0.01195038167939022,-0.014085266113281262,0.001049804687500027,0.9979064941406238
27,-0.04341984732824522,-0.13888549618320611,0.07201908396946477,0.0003190307617187381,-0.0006591796874999729,1.000469970703124
28,0.048183206106869214,0.02905343511450379,-0.05011832061068788,-0.012986633300781262,0.003247070312500027,0.9947326660156238
29,-0.005251908396947558,-1.9709465648854962,0.12545419847328154,-0.0007796020507812619,-0.00041503906249997294,1.000103759765624
30,0.010015267175571552,0.13592366412213736,-0.02721755725190933,0.003859069824218738,-0.001757812499999973,0.9957092285156238
31,0.07871755725190743,0.1435572519083969,0.010950381679388332,-0.001756164550781262,7.324218750002706e-05,0.9981506347656238
32,-0.05868702290076433,-0.10835114503816796,-0.11882061068702376,-0.0002913208007812619,0.001293945312500027,0.9997375488281238
33,0.02528244274809066,1.8840152671755725,0.05675190839694566,0.0001969604492187381,-0.00041503906249997294,1.000714111328124
34,-0.02815267175572611,0.03668702290076333,-0.01195038167939022,-0.001023742675781262,-0.0006591796874999729,0.9991271972656238
35,0.002381679389311886,-1.9327786259541986,0.09491984732824332,-0.001878234863281262,-0.0006591796874999729,0.9991271972656238
36,0.07871755725190743,-0.024381679389313002,0.04148473282442655,0.014112976074218738,0.001293945312500027,0.9998596191406238
37,0.032916030534350105,0.12829007633587786,0.026217557251907442,-0.004075500488281262,0.00031738281250002706,1.002423095703124
38,0.010015267175571552,-0.01674809160305346,0.0033167938931288887,-0.0009016723632812619,0.00031738281250002706,0.9972961425781238
39,-0.05868702290076433,-0.12361832061068705,0.010950381679388332,0.003126647949218738,0.0009277343750000271,0.9958312988281238
40,-0.005251908396947558,0.09012213740458012,0.049118320610685995,-0.002976867675781262,-0.001025390624999973,1.003399658203124
41,-0.066320610687024,0.1435572519083969,0.10255343511450277,0.007887390136718738,-0.002612304687499973,1.001568603515624
42,-0.035786259541985777,-0.03964885496183208,0.09491984732824332,-0.001512023925781262,0.0008056640625000271,0.9970520019531238
43,-0.020519083969466667,1.9221832061068702,0.04148473282442655,-0.002244445800781262,-0.001879882812499973,1.008648681640624
44,0.06345038167938832,-0.009114503816793918,-1.7295076335877873,-0.013719055175781262,0.0008056640625000271,1.000836181640624
45,0.017648854961830995,0.02905343511450379,-0.05775190839694755,-0.003831359863281262,0.001904296875000027,0.9992492675781238
46,-0.012885496183207001,-0.0625496183206107,-0.0806526717557261,-0.001756164550781262,0.005444335937500027,0.9986389160156238
47,-0.04341984732824522,0.0672213740458015,0.010950381679388332,0.003981140136718738,-0.003222656249999973,0.9894836425781238
48,0.02528244274809066,0.006152671755725165,0.13308778625954099,-0.013352844238281262,-0.002978515624999973,1.006207275390624
49,0.02528244274809066,0.0672213740458015,0.13308778625954099,0.002638366699218738,0.004467773437500027,1.003155517578124
50,-0.012885496183207001,-0.047282442748091624,0.05675190839694566,-0.002000305175781262,0.003125000000000027,1.001202392578124
51,-0.02815267175572611,0.09012213740458012,-1.7753091603053446,-0.004441711425781262,0.003125000000000027,0.9970520019531238
52,0.032916030534350105,-0.047282442748091624,-0.06538549618320699,-0.001389953613281262,-0.001513671874999973,0.9993713378906238
53,-0.08922137404580255,-0.009114503816793918,-0.1798893129771002,0.001661804199218738,0.0006835937500000271,1.001812744140624
54,-0.09685496183206199,1.891648854961832,0.09491984732824332,-0.002976867675781262,0.001416015625000027,0.9983947753906238
55,0.017648854961830995,0.02141984732824425,-0.02721755725190933,-0.013596984863281262,-0.007373046874999973,1.000958251953124
56,0.048183206106869214,0.2351603053435114,0.07201908396946477,-0.002854797363281262,0.007153320312500027,1.001324462890624
57,0.06345038167938832,-0.047282442748091624,0.04148473282442655,0.0003190307617187381,0.002392578125000027,1.004986572265624
58,-0.005251908396947558,0.01378625954198471,0.033851145038166885,-0.001267883300781262,-0.004809570312499973,0.9981506347656238
59,-0.08158778625954288,-0.08545038167938934,-0.05011832061068788,-0.0009016723632812619,-0.0006591796874999729,1.000469970703124
60,-0.005251908396947558,0.04432061068702288,-0.004316793893130777,0.0005631713867187381,0.0009277343750000271,1.003277587890624
61,-0.012885496183207001,0.01378625954198471,-0.05775190839694755,0.0004411010742187381,-0.0009033203124999729,0.9963195800781238
62,0.017648854961830995,-0.03201526717557254,-0.06538549618320699,-0.0001692504882812619,-0.001879882812499973,0.9985168457031238
63,-0.14265648854961932,0.05195419847328242,0.018583969465647776,0.013746765136718738,0.00019531250000002706,1.000714111328124
64,-0.05868702290076433,-1.9785801526717557,0.09491984732824332,-0.003465148925781262,0.004956054687500027,0.9911926269531238
65,0.017648854961830995,-0.19232061068702294,0.11782061068702188,-0.002732727050781262,-0.00017089843749997294,1.002667236328124
66,0.05581679389312888,0.02905343511450379,0.05675190839694566,-4.718017578126191e-05,0.001293945312500027,1.000592041015624
67,-0.04341984732824522,0.03668702290076333,-0.09591984732824521,0.015699890136718738,0.001782226562500027,1.015972900390624
68,-0.10448854961832166,-0.01674809160305346,-0.004316793893130777,-0.002122375488281262,-0.001025390624999973,0.9999816894531238
69,0.07871755725190743,-0.054916030534351165,-0.05011832061068788,-0.002366516113281262,0.007397460937500027,1.001080322265624
70,-0.15029007633587876,0.02905343511450379,-0.01195038167939022,0.0004411010742187381,-0.001635742187499973,1.004376220703124
71,0.048183206106869214,-0.08545038167938934,0.033851145038166885,-0.003953430175781262,-0.0006591796874999729,0.9996154785156238
72,0.14741984732824331,0.02141984732824425,0.08728625954198366,-0.001389953613281262,-0.001391601562499973,0.9888732910156238
73,0.07108396946564777,0.0672213740458015,0.049118320610685995,-0.003831359863281262,0.005688476562500027,0.9993713378906238
74,0.002381679389311886,-0.07018320610687026,-0.034851145038168996,0.0009293823242187381,0.001171875000000027,0.9969299316406238
75,-0.08158778625954288,0.03668702290076333,-0.05775190839694755,-0.003343078613281262,0.002148437500000027,0.9955871582031238
76,-0.035786259541985777,0.05958778625954196,-0.05775190839694755,-0.0004133911132812619,-0.002856445312499973,0.9986389160156238
77,0.04054961832060977,0.08248854961832058,0.11782061068702188,-0.001756164550781262,-0.001757812499999973,1.007550048828124
78,0.07108396946564777,-0.03201526717557254,0.09491984732824332,-0.0007796020507812619,-0.003955078124999973,0.9982727050781238
79,0.07871755725190743,-0.001480916030534376,0.09491984732824332,-0.002488586425781262,-0.001391601562499973,0.9985168457031238
80,0.08635114503816688,0.09012213740458012,0.0033167938931288887,-0.0004133911132812619,-0.002490234374999973,1.003887939453124
81,0.04054961832060977,-0.009114503816793918,-0.11882061068702376,0.001173522949218738,-0.002368164062499973,0.9982727050781238
82,0.02528244274809066,0.08248854961832058,-0.004316793893130777,-0.002732727050781262,-0.004199218749999973,1.015606689453124
83,0.010015267175571552,-1.9556793893129771,-0.09591984732824521,-0.002366516113281262,0.001171875000000027,1.002789306640624
84,-0.051053435114504886,-0.009114503816793918,0.08728625954198366,-0.013963195800781262,-4.882812499997294e-05,0.9914367675781238
85,-0.012885496183207001,-1.9327786259541986,-1.7753091603053446,0.003492858886718738,0.00019531250000002706,0.9955871582031238
86,-0.04341984732824522,-0.024381679389313002,0.14072137404580065,0.0003190307617187381,-0.001635742187499973,1.008160400390624
87,-0.051053435114504886,-0.07018320610687026,0.09491984732824332,-0.0006575317382812619,0.001538085937500027,0.9987609863281238
88,-0.09685496183206199,0.11302290076335876,0.1636221374045792,-0.004075500488281262,-0.002001953124999973,0.9992492675781238
89,-0.02815267175572611,-0.001480916030534376,0.07965267175572421,0.002272155761718738,7.324218750002706e-05,1.000347900390624
90,-0.05868702290076433,-1.940412213740458,-0.05775190839694755,0.0001969604492187381,-0.003100585937499973,1.001568603515624
91,-0.04341984732824522,0.03668702290076333,0.05675190839694566,0.001173522949218738,0.003369140625000027,1.004132080078124
92,-0.1273893129771002,0.05195419847328242,0.15598854961831954,-0.006394836425781262,0.002392578125000027,0.9998596191406238
93,0.010015267175571552,-1.9480458015267177,0.07201908396946477,0.016310241699218738,-0.0006591796874999729,1.003643798828124
94,-0.012885496183207001,1.8687480916030534,0.11782061068702188,0.0004411010742187381,-0.0009033203124999729,1.004010009765624
95,0.032916030534350105,-0.01674809160305346,-0.12645419847328343,-0.002244445800781262,0.001416015625000027,0.9966857910156238
96,-0.005251908396947558,-1.9785801526717557,0.018583969465647776,-0.001389953613281262,0.021069335937500027,1.006085205078124
97,-0.005251908396947558,-0.009114503816793918,-0.01195038167939022,-0.013963195800781262,-0.004809570312499973,0.9968078613281238
98,0.04054961832060977,0.01378625954198471,-0.02721755725190933,0.014112976074218738,0.0009277343750000271,1.004864501953124
99,0.048183206106869214,-0.09308396946564888,-0.06538549618320699,-0.005052062988281262,0.0009277343750000271,0.9992492675781238
100,0.10161832061068599,0.02141984732824425,0.11782061068702188,0.001783874511718738,-4.882812499997294e-05,1.004376220703124
101,-0.1273893129771002,0.09012213740458012,0.033851145038166885,0.001173522949218738,-0.0009033203124999729,0.9994934082031238
102,0.010015267175571552,-0.054916030534351165,0.05675190839694566,0.015333679199218738,-0.003466796874999973,1.002301025390624
103,-0.035786259541985777,0.006152671755725165,0.0033167938931288887,0.001905944824218738,-0.00017089843749997294,0.9986389160156238
104,-0.005251908396947558,0.04432061068702288,-0.05775190839694755,-0.005662414550781262,0.004101562500000027,0.9950988769531238
105,-0.13502290076335988,0.006152671755725165,-0.06538549618320699,-4.718017578126191e-05,-0.00017089843749997294,1.002056884765624
106,0.048183206106869214,0.1053893129770992,0.0033167938931288887,0.009840515136718738,0.001538085937500027,1.000347900390624
107,0.048183206106869214,-1.925145038167939,0.026217557251907442,0.001783874511718738,-0.002856445312499973,0.9963195800781238
108,-0.020519083969466667,0.08248854961832058,0.1483549618320601,0.0008073120117187381,-0.002368164062499973,0.9975402832031238
109,-0.08158778625954288,1.8840152671755725,-0.02721755725190933,-0.013352844238281262,0.005200195312500027,1.000714111328124
110,0.04054961832060977,0.03668702290076333,0.04148473282442655,-0.002610656738281262,-0.001513671874999973,1.004864501953124
111,-0.020519083969466667,0.1435572519083969,0.033851145038166885,-0.003831359863281262,-0.001513671874999973,1.000592041015624
112,-0.07395419847328344,0.09775572519083967,0.018583969465647776,-0.002122375488281262,-0.004321289062499973,1.006939697265624
113,0.02528244274809066,-0.1312519083969466,0.010950381679388332,0.016798522949218738,0.005200195312500027,1.001324462890624
114,-0.012885496183207001,-0.001480916030534376,0.12545419847328154,0.015821960449218738,-0.00017089843749997294,1.003399658203124
115,-0.020519083969466667,0.0672213740458015,0.049118320610685995,0.001661804199218738,0.004833984375000027,1.004864501953124
116,-0.020519083969466667,-0.0625496183206107,0.0643854961832051,-0.001389953613281262,0.0005615234375000271,0.9991271972656238
117,0.02528244274809066,0.02905343511450379,0.0643854961832051,-0.0004133911132812619,0.002880859375000027,1.007061767578124
118,0.048183206106869214,-0.03201526717557254,-0.07301908396946666,0.002882507324218738,0.001293945312500027,0.9992492675781238
119,-0.04341984732824522,0.01378625954198471,-0.06538549618320699,0.005445983886718738,-0.0007812499999999729,1.000225830078124
120,0.02528244274809066,0.02905343511450379,-0.14172137404580254,-0.002732727050781262,0.003247070312500027,1.004010009765624
121,0.10161832061068599,0.006152671755725165,-0.07301908396946666,-0.0001692504882812619,0.005932617187500027,1.000592041015624
122,0.06345038167938832,0.04432061068702288,0.049118320610685995,-0.0001692504882812619,-0.00029296874999997294,1.018658447265624
123,0.002381679389311886,-0.001480916030534376,2.1101870229007624,0.004103210449218738,-0.00041503906249997294,0.9985168457031238
124,0.04054961832060977,-0.09308396946564888,0.19415648854961742,0.0005631713867187381,-0.003100585937499973,0.9959533691406238
125,0.032916030534350105,-0.001480916030534376,-0.034851145038168996,-0.005418273925781262,0.001171875000000027,0.9991271972656238
126,0.1321526717557242,0.09775572519083967,-0.05011832061068788,-0.0006575317382812619,0.004223632812500027,1.001568603515624
127,-0.09685496183206199,-0.024381679389313002,-0.02721755725190933,0.006910827636718738,-0.002368164062499973,1.001202392578124
128,-0.05868702290076433,-1.9633129770992366,-0.08828625954198577,-0.002488586425781262,0.002026367187500027,0.9969299316406238
129,-0.16555725190839787,0.01378625954198471,0.07965267175572421,0.016554382324218738,-0.004077148437499973,0.9966857910156238
130,-0.08922137404580255,1.8687480916030534,0.12545419847328154,0.016310241699218738,-0.001757812499999973,1.002545166015624
131,0.010015267175571552,-1.8946106870229007,0.026217557251907442,0.013624694824218738,-0.003466796874999973,1.002911376953124
132,-0.020519083969466667,-0.03201526717557254,0.026217557251907442,-0.001756164550781262,-0.00017089843749997294,1.015850830078124
133,-0.051053435114504886,0.05958778625954196,0.05675190839694566,-0.009934875488281262,-0.003833007812499973,0.9982727050781238
134,0.032916030534350105,-0.01674809160305346,-0.004316793893130777,-4.718017578126191e-05,0.001049804687500027,0.9998596191406238
135,0.002381679389311886,-0.07781679389312979,0.049118320610685995,-0.012986633300781262,-0.001879882812499973,1.003765869140624
136,0.032916030534350105,-0.01674809160305346,-0.06538549618320699,-0.0006575317382812619,0.001904296875000027,0.9969299316406238
137,-0.09685496183206199,0.0672213740458015,0.1483549618320601,-0.002366516113281262,0.003857421875000027,1.006329345703124
138,0.08635114503816688,0.1053893129770992,0.04148473282442655,0.001539733886718738,-0.003466796874999973,0.9961975097656238
139,-0.066320610687024,-0.047282442748091624,-0.019583969465649886,0.006544616699218738,-0.001147460937499973,0.9992492675781238
140,0.07108396946564777,-0.03201526717557254,-0.1646221374045811,-0.013719055175781262,0.001171875000000027,0.9986389160156238
141,0.032916030534350105,0.07485496183206104,-0.01195038167939022,0.002882507324218738,0.001049804687500027,0.9994934082031238
142,0.08635114503816688,0.07485496183206104,0.0033167938931288887,-0.0009016723632812619,-0.003833007812499973,1.000103759765624
143,0.14741984732824331,0.11302290076335876,0.07201908396946477,-0.0002913208007812619,0.002880859375000027,0.9896057128906238
144,-0.08158778625954288,0.006152671755725165,0.010950381679388332,-0.013596984863281262,-0.001879882812499973,0.9998596191406238
145,-0.05868702290076433,-0.07781679389312979,0.23232442748091486,0.003492858886718738,0.002392578125000027,1.018780517578124
146,-0.07395419847328344,0.03668702290076333,0.0643854961832051,0.005812194824218738,-0.002978515624999973,1.001446533203124
147,-0.005251908396947558,1.9145496183206105,-0.02721755725190933,-0.0009016723632812619,-0.002978515624999973,1.004620361328124
148,-0.005251908396947558,-0.07018320610687026,-0.06538549618320699,-0.001267883300781262,0.00019531250000002706,1.001080322265624
149,-0.07395419847328344,1.9145496183206105,-0.01195038167939022,-0.004807922363281262,0.002636718750000027,1.004986572265624
150,0.13978625954198365,0.09775572519083967,-0.004316793893130777,-0.001634094238281262,0.001171875000000027,0.9925354003906238
151,0.017648854961830995,0.02905343511450379,2.094919847328243,-0.013719055175781262,-0.001757812499999973,0.9971740722656238
152,0.017648854961830995,0.17409160305343507,0.23232442748091486,0.003248718261718738,-0.003588867187499973,1.002789306640624
153,-0.15792366412213843,0.08248854961832058,-0.019583969465649886,0.014967468261718738,-0.001391601562499973,0.9899719238281238
154,-0.066320610687024,0.07485496183206104,-0.15698854961832165,-0.003343078613281262,0.002758789062500027,0.9988830566406238
155,-0.1273893129771002,-0.03201526717557254,0.0643854961832051,-0.0007796020507812619,-0.003222656249999973,0.9992492675781238
156,0.07108396946564777,0.04432061068702288,-0.034851145038168996,0.003370788574218738,0.006665039062500027,0.9953430175781238
157,-0.035786259541985777,0.04432061068702288,0.0643854961832051,-0.003465148925781262,0.003491210937500027,1.001690673828124
158,0.12451908396946476,0.21989312977099235,0.07965267175572421,0.002638366699218738,0.00019531250000002706,0.9929016113281238
159,0.010015267175571552,0.09775572519083967,0.033851145038166885,-0.005540344238281262,0.00031738281250002706,1.003155517578124
160,-0.08922137404580255,0.13592366412213736,-0.01195038167939022,-0.0009016723632812619,0.0008056640625000271,0.9979064941406238
161,0.06345038167938832,1.9221832061068702,-0.01195038167939022,0.003614929199218738,-0.001147460937499973,0.9985168457031238
162,0.05581679389312888,0.006152671755725165,0.0033167938931288887,-0.0009016723632812619,-0.001635742187499973,1.001080322265624
163,-0.005251908396947558,0.02905343511450379,0.018583969465647776,-0.007493469238281262,0.0006835937500000271,0.9983947753906238
164,0.032916030534350105,0.1435572519083969,0.04148473282442655,-0.002976867675781262,-0.0006591796874999729,1.003155517578124
165,0.02528244274809066,0.02141984732824425,0.0643854961832051,0.014357116699218738,-0.0006591796874999729,0.9983947753906238
166,-0.08158778625954288,-1.9480458015267177,0.11018702290076243,-0.001145812988281262,-0.001757812499999973,1.005963134765624
167,-0.051053435114504886,-0.001480916030534376,2.0567519083969454,0.002760437011718738,0.001171875000000027,0.9975402832031238
168,-0.020519083969466667,0.07485496183206104,0.11018702290076243,-0.004685852050781262,0.002392578125000027,1.002667236328124
169,0.10161832061068599,-0.03964885496183208,0.0033167938931288887,0.0005631713867187381,0.001049804687500027,0.9999816894531238
170,0.1168854961832051,0.04432061068702288,-0.06538549618320699,-0.001389953613281262,0.00043945312500002706,1.002423095703124
171,-0.020519083969466667,-0.001480916030534376,0.0033167938931288887,-0.001389953613281262,-0.004931640624999973,1.000958251953124
172,0.02528244274809066,0.01378625954198471,0.08728625954198366,-0.0009016723632812619,-0.00041503906249997294,1.007305908203124
173,0.08635114503816688,0.02141984732824425,-0.019583969465649886,0.0009293823242187381,-0.002856445312499973,1.003399658203124
174,0.017648854961830995,-1.925145038167939,0.0033167938931288887,-0.003221008300781262,0.004101562500000027,1.002545166015624
175,0.09398473282442654,0.02141984732824425,-0.05011832061068788,7.489013671873809e-05,-0.001025390624999973,0.9990051269531238
176,-0.005251908396947558,0.02905343511450379,-0.004316793893130777,0.001417663574218738,-0.002001953124999973,0.9970520019531238
177,0.07871755725190743,0.03668702290076333,-0.004316793893130777,0.0005631713867187381,-0.003344726562499973,1.001690673828124
178,0.048183206106869214,-0.001480916030534376,-0.019583969465649886,0.003736999511718738,0.00043945312500002706,1.011456298828124
179,0.032916030534350105,-0.047282442748091624,-0.07301908396946666,0.0001969604492187381,-0.002612304687499973,1.000347900390624
180,0.017648854961830995,0.05958778625954196,0.09491984732824332,0.002638366699218738,-0.005297851562499973,0.9979064941406238
181,-0.07395419847328344,-0.01674809160305346,0.049118320610685995,-0.013841125488281262,0.00019531250000002706,0.9937561035156238
182,0.1168854961832051,-1.8793435114503818,0.07965267175572421,7.489013671873809e-05,-0.001147460937499973,0.9891174316406238
183,0.06345038167938832,0.006152671755725165,-0.05011832061068788,0.001051452636718738,-0.001513671874999973,0.9987609863281238
184,-0.07395419847328344,0.09012213740458012,0.010950381679388332,0.002272155761718738,-0.004687499999999973,1.017559814453124
185,0.002381679389311886,-0.1159847328244275,0.08728625954198366,0.001905944824218738,0.002758789062500027,1.014141845703124
186,0.032916030534350105,-0.09308396946564888,-0.04248473282442844,0.003736999511718738,0.005078125000000027,1.014996337890624
187,0.13978625954198365,-0.08545038167938934,0.10255343511450277,0.003126647949218738,-0.003955078124999973,1.000958251953124
188,-0.020519083969466667,0.09012213740458012,0.08728625954198366,-0.001512023925781262,0.002880859375000027,0.9992492675781238
189,0.04054961832060977,0.02905343511450379,0.07201908396946477,-0.001145812988281262,-0.002734374999999973,0.9997375488281238
190,-0.04341984732824522,-0.03201526717557254,0.033851145038166885,0.001539733886718738,-0.001513671874999973,1.017193603515624
191,-0.08158778625954288,-1.9709465648854962,0.0033167938931288887,-0.001267883300781262,0.003491210937500027,0.9997375488281238
192,-0.012885496183207001,0.09012213740458012,0.11018702290076243,-0.002366516113281262,0.007275390625000027,0.9922912597656238
193,-0.04341984732824522,1.8840152671755725,0.10255343511450277,-0.002488586425781262,0.002636718750000027,1.001324462890624
194,-0.10448854961832166,0.03668702290076333,0.049118320610685995,0.0005631713867187381,0.001538085937500027,1.019146728515624
195,-0.08922137404580255,0.01378625954198471,0.08728625954198366,7.489013671873809e-05,-0.003588867187499973,0.9947326660156238
196,-0.020519083969466667,0.07485496183206104,0.04148473282442655,0.002638366699218738,0.001782226562500027,1.000469970703124
197,-0.10448854961832166,0.07485496183206104,-0.034851145038168996,-0.0005354614257812619,0.001293945312500027,1.009136962890624
198,0.07871755725190743,0.0672213740458015,-0.09591984732824521,-0.002488586425781262,-0.003100585937499973,0.9980285644531238
199,-0.1273893129771002,0.09775572519083967,-0.08828625954198577,-0.0004133911132812619,-0.001147460937499973,1.004620361328124
200,-0.07395419847328344,-0.024381679389313002,-0.019583969465649886,-0.001023742675781262,0.001538085937500027,0.9994934082031238
201,-0.04341984732824522,0.02141984732824425,-0.04248473282442844,0.003370788574218738,0.0009277343750000271,0.9975402832031238
202,0.017648854961830995,0.18935877862595418,0.026217557251907442,-0.0009016723632812619,-0.002368164062499973,0.9971740722656238
203,0.1168854961832051,0.05958778625954196,0.07201908396946477,-0.003098937988281262,7.324218750002706e-05,1.002789306640624
204,0.010015267175571552,-0.001480916030534376,0.11782061068702188,-0.003465148925781262,0.0006835937500000271,1.000225830078124
205,0.017648854961830995,0.12829007633587786,-0.10355343511450488,0.001905944824218738,0.003247070312500027,1.002178955078124
206,0.07108396946564777,0.18935877862595418,0.14072137404580065,0.0006852416992187381,-0.001269531249999973,0.9985168457031238
207,0.017648854961830995,0.09012213740458012,-0.01195038167939022,-0.0006575317382812619,-0.001025390624999973,0.9936340332031238
208,-0.02815267175572611,0.12065648854961829,-0.08828625954198577,-0.004563781738281262,-0.003100585937499973,0.9930236816406238
209,0.07108396946564777,0.09012213740458012,0.10255343511450277,0.005690124511718738,-0.001879882812499973,0.9988830566406238
210,0.07108396946564777,-0.17705343511450383,0.0033167938931288887,-0.002366516113281262,0.001904296875000027,0.9986389160156238
211,-0.02815267175572611,-1.9327786259541986,-0.034851145038168996,0.0001969604492187381,-0.004809570312499973,0.9996154785156238
212,-0.012885496183207001,0.02905343511450379,0.0033167938931288887,-0.002488586425781262,0.004467773437500027,0.9944885253906238
213,-0.04341984732824522,0.13592366412213736,-0.05011832061068788,-0.004929992675781262,-0.00041503906249997294,1.001202392578124
214,-0.1121221374045811,-1.9709465648854962,-0.11118702290076432,-0.003587219238281262,0.0008056640625000271,1.001324462890624
215,-0.08922137404580255,0.05195419847328242,0.010950381679388332,0.001295593261718738,0.002148437500000027,1.002301025390624
216,0.18558778625954098,-0.001480916030534376,0.09491984732824332,-0.002854797363281262,0.0006835937500000271,1.007061767578124
217,0.06345038167938832,0.02141984732824425,0.049118320610685995,-0.003831359863281262,-0.001147460937499973,1.002789306640624
218,-0.08922137404580255,0.12829007633587786,0.049118320610685995,-0.002610656738281262,-0.003344726562499973,0.9986389160156238
219,-0.09685496183206199,-1.9709465648854962,-0.019583969465649886,0.001295593261718738,-0.001757812499999973,1.016461181640624
220,-0.04341984732824522,-0.10835114503816796,-0.02721755725190933,-0.012864562988281262,-0.002124023437499973,0.9953430175781238
221,0.10925190839694565,-1.9633129770992366,-0.01195038167939022,0.001051452636718738,-0.001635742187499973,1.018536376953124
222,0.002381679389311886,-0.03201526717557254,-0.05011832061068788,0.002760437011718738,-0.004321289062499973,0.9980285644531238
223,0.08635114503816688,0.05958778625954196,0.04148473282442655,-0.002610656738281262,0.003491210937500027,1.000592041015624
224,-0.035786259541985777,-0.047282442748091624,-0.004316793893130777,0.005201843261718738,0.00043945312500002706,0.9997375488281238
225,0.1321526717557242,-0.03201526717557254,0.08728625954198366,-0.013719055175781262,0.003735351562500027,0.9921691894531238
226,-0.1273893129771002,-0.01674809160305346,0.0033167938931288887,0.001661804199218738,-0.003344726562499973,1.000958251953124
227,0.13978625954198365,-0.047282442748091624,-0.20279007633587876,-0.004929992675781262,0.00019531250000002706,1.005230712890624
228,0.13978625954198365,0.03668702290076333,0.05675190839694566,-0.0002913208007812619,0.002514648437500027,1.001446533203124
229,0.08635114503816688,0.04432061068702288,-0.05775190839694755,-0.0001692504882812619,-0.001147460937499973,0.9889953613281238
230,0.08635114503816688,0.05195419847328242,0.0033167938931288887,0.0003190307617187381,-0.0005371093749999729,0.9954650878906238
231,-0.1121221374045811,0.02905343511450379,0.026217557251907442,0.002150085449218738,0.001782226562500027,0.9975402832031238
232,0.19322137404580064,-0.054916030534351165,0.1483549618320601,0.004713562011718738,0.004101562500000027,1.002667236328124
233,0.09398473282442654,0.006152671755725165,0.04148473282442655,-0.003465148925781262,-0.003222656249999973,1.007183837890624
234,0.010015267175571552,0.17409160305343507,-0.01195038167939022,0.0008073120117187381,-0.0009033203124999729,1.001446533203124
235,-0.051053435114504886,-0.047282442748091624,-0.01195038167939022,-0.014085266113281262,0.003491210937500027,0.9980285644531238
236,0.10161832061068599,1.9221832061068702,-0.06538549618320699,-0.002488586425781262,0.00019531250000002706,0.9977844238281238
237,-0.012885496183207001,-1.9709465648854962,0.05675190839694566,0.005690124511718738,0.0005615234375000271,1.006939697265624
238,0.05581679389312888,0.1053893129770992,0.13308778625954099,-0.012010070800781262,0.0006835937500000271,0.9971740722656238
239,-0.08158778625954288,-1.940412213740458,0.1788893129770983,-0.002854797363281262,0.002880859375000027,1.000714111328124
240,-0.08922137404580255,0.05195419847328242,0.07965267175572421,0.003370788574218738,-0.001269531249999973,0.9959533691406238
241,-0.05868702290076433,-0.03964885496183208,0.010950381679388332,0.001905944824218738,0.005200195312500027,1.005841064453124
242,0.15505343511450276,-0.009114503816793918,0.04148473282442655,-0.002610656738281262,-0.00029296874999997294,0.9987609863281238
243,-0.04341984732824522,0.07485496183206104,0.07201908396946477,-0.002366516113281262,-0.005175781249999973,0.9974182128906238
244,0.10925190839694565,0.15119083969465646,-0.0806526717557261,0.003736999511718738,-0.002246093749999973,0.9985168457031238
245,-0.08158778625954288,0.12829007633587786,0.04148473282442655,0.001051452636718738,0.0008056640625000271,1.003277587890624
246,0.06345038167938832,-0.13888549618320611,0.07201908396946477,-0.002366516113281262,0.003613281250000027,0.9975402832031238
247,0.07871755725190743,0.1053893129770992,0.14072137404580065,0.0005631713867187381,-0.001269531249999973,1.002911376953124
248,0.017648854961830995,0.08248854961832058,0.033851145038166885,0.016798522949218738,0.001171875000000027,1.003399658203124
249,0.1321526717557242,-0.047282442748091624,-0.034851145038168996,0.005323913574218738,0.003491210937500027,0.9987609863281238
250,0.002381679389311886,-0.03964885496183208,0.026217557251907442,-0.013108703613281262,-0.00017089843749997294,1.007550048828124
251,0.09398473282442654,0.05958778625954196,0.033851145038166885,0.004591491699218738,-0.001391601562499973,1.000469970703124
252,0.032916030534350105,0.08248854961832058,0.09491984732824332,-0.002488586425781262,0.002026367187500027,0.9889953613281238
253,-0.051053435114504886,0.1053893129770992,0.04148473282442655,-0.013352844238281262,-0.001025390624999973,0.9896057128906238
254,-0.07395419847328344,0.11302290076335876,-0.019583969465649886,-0.0009016723632812619,-0.002368164062499973,1.000469970703124
255,-0.035786259541985777,-0.1159847328244275,0.13308778625954099,-0.001389953613281262,0.002148437500000027,0.9949768066406238
256,0.032916030534350105,1.9145496183206105,-0.11118702290076432,0.016188171386718738,-0.0005371093749999729,1.007916259765624
257,-0.07395419847328344,0.05195419847328242,-0.14172137404580254,-0.002610656738281262,0.00043945312500002706,0.9894836425781238
258,-0.020519083969466667,0.1435572519083969,-0.06538549618320699,0.016554382324218738,-0.0005371093749999729,1.000836181640624
259,0.06345038167938832,-0.054916030534351165,0.13308778625954099,0.0001969604492187381,-0.00017089843749997294,0.9987609863281238
260,0.017648854961830995,0.006152671755725165,0.12545419847328154,-0.011765930175781262,-0.00017089843749997294,0.9935119628906238
261,0.10161832061068599,-0.01674809160305346,0.05675190839694566,-0.013474914550781262,0.003125000000000027,0.9958312988281238
262,0.06345038167938832,0.11302290076335876,0.018583969465647776,0.004103210449218738,0.003247070312500027,1.003155517578124
263,0.07108396946564777,0.1053893129770992,-0.05775190839694755,0.001783874511718738,-0.002124023437499973,1.010113525390624
264,0.10161832061068599,-0.16178625954198478,0.07965267175572421,-0.002610656738281262,0.005322265625000027,0.9999816894531238
265,0.07871755725190743,0.04432061068702288,0.12545419847328154,-0.012376281738281262,0.005566406250000027,0.9977844238281238
266,0.10161832061068599,0.05195419847328242,-0.11118702290076432,-0.003465148925781262,-0.002246093749999973,0.9954650878906238
267,-0.04341984732824522,0.006152671755725165,0.05675190839694566,-0.001634094238281262,-0.003955078124999973,1.000103759765624
268,0.017648854961830995,-0.009114503816793918,-0.004316793893130777,0.001173522949218738,0.0008056640625000271,1.001690673828124
269,-0.051053435114504886,-0.009114503816793918,0.17125572519083865,0.002882507324218738,0.001538085937500027,0.9981506347656238
270,-0.020519083969466667,1.906916030534351,0.0033167938931288887,0.005201843261718738,0.002758789062500027,0.9986389160156238
271,0.04054961832060977,-0.0625496183206107,-0.01195038167939022,-0.003343078613281262,0.005078125000000027,1.000469970703124
272,-0.020519083969466667,-1.9022442748091604,0.0033167938931288887,-0.001512023925781262,0.004833984375000027,0.9993713378906238
273,0.09398473282442654,-0.07018320610687026,0.04148473282442655,-0.0001692504882812619,-0.001147460937499973,0.9985168457031238
274,0.032916030534350105,-0.14651908396946567,0.07201908396946477,-0.001145812988281262,-0.004077148437499973,1.000103759765624
275,-0.012885496183207001,0.17409160305343507,0.033851145038166885,0.001051452636718738,0.002392578125000027,0.9980285644531238
276,-0.02815267175572611,-0.009114503816793918,2.0872862595419837,-0.002366516113281262,-0.002246093749999973,0.9913146972656238
277,-0.066320610687024,-0.03964885496183208,0.049118320610685995,-0.002122375488281262,0.002026367187500027,1.002789306640624
278,-0.11975572519084077,0.1435572519083969,-0.019583969465649886,-0.006516906738281262,-0.002368164062499973,0.9893615722656238
279,-0.05868702290076433,0.01378625954198471,-0.034851145038168996,0.0006852416992187381,-0.00041503906249997294,0.9980285644531238
280,0.04054961832060977,0.09012213740458012,0.049118320610685995,-0.002854797363281262,0.001416015625000027,1.001324462890624
281,-0.066320610687024,0.04432061068702288,-0.04248473282442844,0.0008073120117187381,0.004101562500000027,1.001934814453124
282,0.017648854961830995,-0.009114503816793918,0.15598854961831954,-0.001512023925781262,0.001904296875000027,1.002789306640624
283,0.048183206106869214,0.08248854961832058,0.14072137404580065,-0.001145812988281262,0.001171875000000027,0.9976623535156238
284,-0.066320610687024,0.01378625954198471,0.049118320610685995,0.0008073120117187381,-0.001391601562499973,0.9966857910156238
285,-0.012885496183207001,0.12065648854961829,0.0643854961832051,-0.002000305175781262,0.00043945312500002706,0.9971740722656238
286,0.010015267175571552,0.02141984732824425,-0.14172137404580254,-0.0002913208007812619,-4.882812499997294e-05,0.9915588378906238
287,-0.012885496183207001,0.02905343511450379,-0.04248473282442844,0.0005631713867187381,-0.007128906249999973,1.000836181640624
288,-0.020519083969466667,0.09012213740458012,0.15598854961831954,0.0001969604492187381,0.002026367187500027,0.9907043457031238
289,-0.05868702290076433,-0.10071755725190842,0.0643854961832051,-0.001512023925781262,0.002392578125000027,1.001324462890624
290,-0.07395419847328344,-0.054916030534351165,0.04148473282442655,0.001905944824218738,0.00019531250000002706,0.9921691894531238
291,-0.020519083969466667,0.04432061068702288,0.0033167938931288887,-0.0007796020507812619,0.002148437500000027,0.9996154785156238
292,0.05581679389312888,0.02141984732824425,0.07201908396946477,0.0006852416992187381,-0.0006591796874999729,0.9991271972656238
293,-0.08922137404580255,0.04432061068702288,0.07965267175572421,-0.0009016723632812619,0.005200195312500027,0.9985168457031238
294,-0.005251908396947558,0.1053893129770992,0.04148473282442655,0.013868835449218738,0.001049804687500027,0.9897277832031238
295,0.04054961832060977,0.18172519083969463,0.033851145038166885,-0.002976867675781262,0.0009277343750000271,0.9996154785156238
296,0.07871755725190743,0.11302290076335876,0.018583969465647776,-4.718017578126191e-05,-0.0009033203124999729,0.9897277832031238
297,0.02528244274809066,0.05195419847328242,0.09491984732824332,0.003004577636718738,-0.001391601562499973,0.9964416503906238
298,0.04054961832060977,-1.9556793893129771,-0.05011832061068788,0.002150085449218738,0.0009277343750000271,1.000592041015624
299,0.017648854961830995,-0.03964885496183208,-0.004316793893130777,-0.001512023925781262,0.0006835937500000271,0.9980285644531238
300,0.08635114503816688,0.09775572519083967,0.049118320610685995,-0.001145812988281262,-0.0009033203124999729,1.002667236328124
301,0.017648854961830995,-0.009114503816793918,-0.0806526717557261,0.0001969604492187381,0.007519531250000027,0.9983947753906238
302,0.02528244274809066,0.1053893129770992,0.049118320610685995,-0.003953430175781262,0.004711914062500027,1.006451416015624
303,-0.005251908396947558,-1.9633129770992366,-1.7524083969465658,-0.0009016723632812619,-0.001391601562499973,1.001080322265624
304,-0.09685496183206199,0.0672213740458015,-0.01195038167939022,-4.718017578126191e-05,-0.019458007812499973,1.000836181640624
305,-0.051053435114504886,-0.009114503816793918,0.12545419847328154,-0.003831359863281262,0.005566406250000027,0.9986389160156238
306,-0.02815267175572611,-0.01674809160305346,-0.07301908396946666,-0.0006575317382812619,0.003979492187500027,1.000958251953124
307,-0.10448854961832166,0.03668702290076333,-0.02721755725190933,-0.0005354614257812619,0.005200195312500027,1.004742431640624
308,0.048183206106869214,0.12829007633587786,-0.05011832061068788,0.002272155761718738,0.001049804687500027,1.003521728515624
309,0.07871755725190743,0.25806106870229006,0.04148473282442655,0.007643249511718738,0.00043945312500002706,0.9894836425781238
310,-0.051053435114504886,-0.009114503816793918,0.07201908396946477,-0.0004133911132812619,0.0006835937500000271,0.9983947753906238
311,0.07108396946564777,-0.024381679389313002,0.11018702290076243,0.001783874511718738,0.002514648437500027,1.004010009765624
312,0.16268702290076242,-1.9709465648854962,0.0643854961832051,-0.003465148925781262,0.002392578125000027,0.9999816894531238
313,0.017648854961830995,-0.024381679389313002,0.04148473282442655,0.0006852416992187381,-0.002856445312499973,0.9927795410156238
314,-0.08922137404580255,-0.08545038167938934,0.018583969465647776,0.002394226074218738,0.004101562500000027,1.002301025390624
315,-0.02815267175572611,-0.1159847328244275,0.049118320610685995,-0.002732727050781262,-0.003344726562499973,1.004986572265624
316,-0.012885496183207001,0.07485496183206104,-0.09591984732824521,-0.001023742675781262,-0.0006591796874999729,0.9986389160156238
317,-0.04341984732824522,1.9145496183206105,0.15598854961831954,0.003248718261718738,7.324218750002706e-05,1.004132080078124
318,-0.08922137404580255,-0.01674809160305346,0.05675190839694566,0.015944030761718738,0.001049804687500027,1.003033447265624
319,-0.02815267175572611,0.03668702290076333,0.07201908396946477,0.015455749511718738,0.002026367187500027,1.001812744140624
320,0.017648854961830995,0.05195419847328242,0.15598854961831954,-0.012010070800781262,0.003613281250000027,0.9980285644531238
321,-0.14265648854961932,-1.9480458015267177,0.0643854961832051,-0.002610656738281262,-0.006152343749999973,0.9971740722656238
322,0.010015267175571552,-0.10835114503816796,-0.05775190839694755,-0.013841125488281262,0.00043945312500002706,0.9954650878906238
323,0.02528244274809066,-1.925145038167939,0.026217557251907442,-0.001634094238281262,-0.001635742187499973,0.9990051269531238
324,0.14741984732824331,0.05958778625954196,-0.02721755725190933,-0.001023742675781262,0.003613281250000027,1.003521728515624
325,0.02528244274809066,0.12829007633587786,0.018583969465647776,0.002394226074218738,-0.001757812499999973,0.9971740722656238
326,-0.012885496183207001,0.17409160305343507,0.07965267175572421,0.003004577636718738,-0.001513671874999973,0.9911926269531238
327,0.002381679389311886,0.01378625954198471,0.04148473282442655,-0.0005354614257812619,0.001416015625000027,1.001080322265624
328,-0.11975572519084077,0.03668702290076333,0.049118320610685995,-0.002122375488281262,-0.001513671874999973,0.9969299316406238
329,0.06345038167938832,0.11302290076335876,0.018583969465647776,-0.003098937988281262,-0.003833007812499973,0.9986389160156238
330,-0.15029007633587876,0.07485496183206104,-0.10355343511450488,-0.002976867675781262,7.324218750002706e-05,0.9974182128906238
331,-0.035786259541985777,-0.13888549618320611,-0.10355343511450488,0.001417663574218738,0.001538085937500027,0.9987609863281238
332,-0.066320610687024,-1.9327786259541986,-0.034851145038168996,0.0003190307617187381,-0.003955078124999973,0.9933898925781238
333,-0.1273893129771002,0.03668702290076333,0.0643854961832051,-0.0005354614257812619,-0.005053710937499973,1.007672119140624
334,0.017648854961830995,-0.001480916030534376,0.08728625954198366,-0.002122375488281262,0.002270507812500027,1.001202392578124
335,0.010015267175571552,0.15882442748091602,0.11018702290076243,0.003370788574218738,0.0005615234375000271,1.010845947265624
336,0.002381679389311886,-0.03201526717557254,0.09491984732824332,-0.0006575317382812619,0.002514648437500027,0.9921691894531238
337,-0.11975572519084077,0.18935877862595418,-0.14935496183206198,-0.002854797363281262,0.0006835937500000271,0.9993713378906238
338,0.02528244274809066,-0.07781679389312979,-0.01195038167939022,-0.0009016723632812619,-4.882812499997294e-05,0.9960754394531238
339,0.05581679389312888,0.07485496183206104,-0.05011832061068788,0.004591491699218738,-0.002612304687499973,1.003277587890624
340,0.10925190839694565,-0.09308396946564888,2.0643854961832053,0.003370788574218738,0.001293945312500027,1.001812744140624
341,0.07871755725190743,-0.054916030534351165,0.033851145038166885,0.001173522949218738,7.324218750002706e-05,1.006939697265624
342,-0.07395419847328344,0.12065648854961829,0.018583969465647776,0.016798522949218738,-0.001757812499999973,1.000714111328124
343,-0.035786259541985777,0.04432061068702288,0.04148473282442655,-0.001756164550781262,0.0005615234375000271,0.9940002441406238
344,-0.020519083969466667,0.08248854961832058,-0.04248473282442844,-0.002854797363281262,-0.0006591796874999729,0.9931457519531238
345,-0.005251908396947558,0.01378625954198471,-0.034851145038168996,-0.0002913208007812619,0.001171875000000027,0.9982727050781238
346,-0.066320610687024,1.9221832061068702,0.0033167938931288887,0.002882507324218738,-0.001025390624999973,0.9889953613281238
347,-0.05868702290076433,-0.054916030534351165,0.07965267175572421,-0.014085266113281262,-0.002978515624999973,0.9994934082031238
348,-0.10448854961832166,-0.054916030534351165,0.033851145038166885,0.017042663574218738,0.005078125000000027,0.9991271972656238
349,0.017648854961830995,0.05958778625954196,-0.02721755725190933,0.001051452636718738,0.003125000000000027,0.9985168457031238
350,0.07108396946564777,0.03668702290076333,0.0033167938931288887,-0.002122375488281262,-0.00041503906249997294,0.9976623535156238
351,-0.09685496183206199,0.09775572519083967,0.010950381679388332,0.004591491699218738,0.003247070312500027,0.9952209472656238
352,0.002381679389311886,0.08248854961832058,0.15598854961831954,-0.001145812988281262,0.0006835937500000271,0.9942443847656238
353,-0.035786259541985777,0.01378625954198471,0.018583969465647776,-0.003465148925781262,-0.002978515624999973,1.005963134765624
354,0.04054961832060977,0.05195419847328242,0.1483549618320601,0.003736999511718738,-0.002124023437499973,0.9977844238281238
355,0.017648854961830995,0.07485496183206104,-0.01195038167939022,0.001295593261718738,0.001049804687500027,0.9987609863281238
356,-0.05868702290076433,-0.12361832061068705,-0.04248473282442844,-0.002244445800781262,0.002270507812500027,0.9930236816406238
357,0.048183206106869214,-0.03964885496183208,-0.01195038167939022,0.002150085449218738,-0.004565429687499973,1.001568603515624
358,-0.012885496183207001,-1.9709465648854962,-0.019583969465649886,-0.004441711425781262,-0.002246093749999973,1.004864501953124
359,0.04054961832060977,0.11302290076335876,-0.08828625954198577,-0.013352844238281262,0.004467773437500027,1.002789306640624
360,-0.005251908396947558,-1.9785801526717557,0.049118320610685995,-0.002976867675781262,-0.001025390624999973,1.003765869140624
361,-0.012885496183207001,0.03668702290076333,-0.01195038167939022,0.003248718261718738,-0.001635742187499973,0.9996154785156238
362,-0.02815267175572611,-0.009114503816793918,0.04148473282442655,-0.011888000488281262,0.001049804687500027,1.004010009765624
363,-0.05868702290076433,0.02141984732824425,0.0643854961832051,-0.001512023925781262,0.00019531250000002706,0.9936340332031238
364,0.017648854961830995,0.09012213740458012,0.09491984732824332,-0.001389953613281262,-0.001879882812499973,0.9938781738281238
365,-0.035786259541985777,0.01378625954198471,0.04148473282442655,0.016920593261718738,-0.001147460937499973,0.9887512207031238
366,0.02528244274809066,-0.0625496183206107,-0.034851145038168996,0.0003190307617187381,0.003857421875000027,0.9889953613281238
367,0.10925190839694565,0.006152671755725165,0.049118320610685995,0.002272155761718738,-0.00029296874999997294,0.9922912597656238
368,0.07108396946564777,-0.001480916030534376,0.04148473282442655,-0.003343078613281262,0.00019531250000002706,1.001446533203124
369,0.07108396946564777,-0.13888549618320611,0.08728625954198366,0.003248718261718738,-4.882812499997294e-05,1.001568603515624
370,0.032916030534350105,-0.001480916030534376,-0.06538549618320699,0.0004411010742187381,-0.002978515624999973,0.9999816894531238
371,0.002381679389311886,-0.001480916030534376,0.07201908396946477,-0.002854797363281262,0.002758789062500027,1.002667236328124
372,-0.051053435114504886,-0.09308396946564888,0.049118320610685995,-0.004319641113281262,-0.0006591796874999729,0.9953430175781238
373,0.09398473282442654,0.006152671755725165,-0.11118702290076432,0.005690124511718738,0.004467773437500027,1.000469970703124
374,0.02528244274809066,1.9221832061068702,0.11782061068702188,-0.0006575317382812619,0.001538085937500027,0.9992492675781238
375,0.13978625954198365,-1.9556793893129771,-0.034851145038168996,0.016310241699218738,0.004589843750000027,0.9971740722656238
376,-0.05868702290076433,0.02141984732824425,0.07965267175572421,0.004957702636718738,0.004711914062500027,1.007550048828124
377,0.06345038167938832,-0.047282442748091624,0.22469083969465542,-0.001634094238281262,-0.002856445312499973,1.001080322265624
378,0.06345038167938832,-0.054916030534351165,0.04148473282442655,-0.013719055175781262,-0.001879882812499973,0.9979064941406238
379,-0.012885496183207001,1.906916030534351,0.026217557251907442,-0.002000305175781262,-0.002978515624999973,1.006939697265624
380,-0.051053435114504886,-0.047282442748091624,0.11018702290076243,0.016554382324218738,0.001171875000000027,1.003521728515624
381,-0.012885496183207001,0.04432061068702288,-0.08828625954198577,-0.002244445800781262,-0.001879882812499973,1.016461181640624
382,0.002381679389311886,0.08248854961832058,-0.05011832061068788,0.006056335449218738,7.324218750002706e-05,0.9993713378906238
383,0.002381679389311886,0.02141984732824425,0.14072137404580065,-0.0001692504882812619,0.002148437500000027,0.9975402832031238
384,-0.07395419847328344,-0.03964885496183208,0.033851145038166885,-0.012254211425781262,0.003735351562500027,1.001324462890624
385,0.048183206106869214,0.04432061068702288,0.049118320610685995,0.002638366699218738,-0.005297851562499973,0.9990051269531238
386,0.16268702290076242,1.906916030534351,-0.05011832061068788,-0.002854797363281262,-0.005175781249999973,0.9997375488281238
387,0.002381679389311886,0.006152671755725165,-0.02721755725190933,-0.002732727050781262,-0.00029296874999997294,0.9979064941406238
388,-0.066320610687024,1.891648854961832,-0.004316793893130777,-0.004075500488281262,0.00043945312500002706,1.003887939453124
389,-0.012885496183207001,-0.024381679389313002,0.07965267175572421,-0.001389953613281262,-0.003466796874999973,0.9964416503906238
390,-0.035786259541985777,-1.9556793893129771,-0.05775190839694755,-0.001023742675781262,0.005444335937500027,0.9968078613281238
391,0.1321526717557242,-0.07781679389312979,0.049118320610685995,0.002394226074218738,0.010693359375000027,1.006939697265624
392,-0.035786259541985777,0.12829007633587786,0.07201908396946477,0.001051452636718738,-0.002490234374999973,1.001446533203124
393,0.06345038167938832,0.02141984732824425,0.010950381679388332,-0.001878234863281262,-0.0007812499999999729,0.9994934082031238
394,0.04054961832060977,0.07485496183206104,-0.09591984732824521,0.001661804199218738,0.0008056640625000271,1.001812744140624
395,0.17032061068702187,0.02141984732824425,-0.0806526717557261,-0.012742492675781262,0.00043945312500002706,0.9963195800781238
396,-0.08158778625954288,-1.9633129770992366,-0.23332442748091697,-0.001389953613281262,-0.002124023437499973,0.9994934082031238
397,-0.1273893129771002,0.05958778625954196,0.0033167938931288887,-0.002976867675781262,0.001660156250000027,0.9952209472656238
398,-0.04341984732824522,0.09775572519083967,0.17125572519083865,0.002760437011718738,-0.003466796874999973,0.9958312988281238
399,-0.07395419847328344,0.02905343511450379,0.09491984732824332,0.0009293823242187381,-0.001879882812499973,0.9919250488281238
400,0.04054961832060977,-0.054916030534351165,0.07201908396946477,0.002516296386718738,-0.002124023437499973,1.002545166015624
401,0.05581679389312888,1.8992824427480917,0.18652290076335776,-0.006516906738281262,0.007031250000000027,1.005108642578124
402,0.017648854961830995,1.9221832061068702,0.07201908396946477,0.0009293823242187381,-0.003222656249999973,1.000714111328124
403,-0.035786259541985777,-0.009114503816793918,-0.08828625954198577,-0.005540344238281262,-0.002734374999999973,1.003155517578124
404,0.048183206106869214,0.01378625954198471,0.07201908396946477,0.002028015136718738,-0.001513671874999973,0.9960754394531238
405,-0.05868702290076433,0.0672213740458015,0.018583969465647776,0.001295593261718738,-0.0007812499999999729,1.003155517578124
406,-0.020519083969466667,-0.054916030534351165,0.12545419847328154,0.0004411010742187381,0.001904296875000027,1.007672119140624
407,-0.066320610687024,0.01378625954198471,0.07201908396946477,0.002028015136718738,0.00043945312500002706,1.003643798828124
408,-0.02815267175572611,0.03668702290076333,0.10255343511450277,-0.004563781738281262,0.002026367187500027,0.9980285644531238
409,0.05581679389312888,-1.9709465648854962,-0.07301908396946666,-0.001878234863281262,-0.0006591796874999729,0.9997375488281238
410,0.032916030534350105,-0.08545038167938934,-0.034851145038168996,-0.001878234863281262,0.002148437500000027,1.000103759765624
411,0.1168854961832051,0.08248854961832058,0.04148473282442655,-0.003098937988281262,-0.00041503906249997294,1.018658447265624
412,0.06345038167938832,0.04432061068702288,2.0872862595419837,-0.001145812988281262,-0.004809570312499973,1.005596923828124
413,-0.1121221374045811,0.03668702290076333,0.09491984732824332,-0.009324523925781262,-0.001513671874999973,1.000469970703124
414,-0.051053435114504886,-0.08545038167938934,0.21705725190839598,-0.002366516113281262,0.001904296875000027,1.001446533203124
415,-0.02815267175572611,0.09012213740458012,0.018583969465647776,-0.013474914550781262,0.001416015625000027,1.001934814453124
416,-0.051053435114504886,0.16645801526717557,0.05675190839694566,0.016432312011718738,0.006054687500000027,1.005963134765624
417,-0.035786259541985777,-1.925145038167939,0.09491984732824332,0.003736999511718738,-0.002978515624999973,0.9968078613281238
418,-0.08922137404580255,-0.024381679389313002,0.0643854961832051,-0.002610656738281262,-0.001513671874999973,1.000592041015624
419,0.017648854961830995,-1.9709465648854962,-0.02721755725190933,-0.004441711425781262,-0.001269531249999973,0.9963195800781238
420,0.002381679389311886,0.09012213740458012,0.0033167938931288887,-0.013719055175781262,0.00043945312500002706,1.003765869140624
421,0.017648854961830995,-0.03964885496183208,-0.11882061068702376,-0.002122375488281262,0.0008056640625000271,1.002056884765624
422,0.02528244274809066,0.03668702290076333,0.10255343511450277,0.002150085449218738,0.005810546875000027,0.9965637207031238
423,0.10925190839694565,-0.03964885496183208,0.11018702290076243,-0.0009016723632812619,-0.002001953124999973,1.014874267578124
424,-0.005251908396947558,-1.8869770992366413,-0.07301908396946666,0.002760437011718738,0.002148437500000027,1.004864501953124
425,0.02528244274809066,0.02141984732824425,0.0643854961832051,0.004591491699218738,0.006298828125000027,1.003521728515624
426,-0.1121221374045811,-0.001480916030534376,0.033851145038166885,0.0003190307617187381,0.001049804687500027,1.000225830078124
427,-0.05868702290076433,0.05195419847328242,0.11782061068702188,0.003859069824218738,-0.00029296874999997294,0.9990051269531238
428,-0.020519083969466667,0.01378625954198471,0.018583969465647776,-0.001267883300781262,-0.001513671874999973,1.001812744140624
429,0.032916030534350105,0.12065648854961829,0.049118320610685995,-0.0006575317382812619,0.003247070312500027,0.9922912597656238
430,-0.012885496183207001,1.9221832061068702,0.026217557251907442,-0.012132141113281262,-0.0006591796874999729,0.9985168457031238
431,-0.020519083969466667,0.006152671755725165,-0.034851145038168996,0.016188171386718738,-0.005419921874999973,0.9963195800781238
432,-0.066320610687024,0.11302290076335876,0.10255343511450277,0.001539733886718738,0.002148437500000027,1.001202392578124
433,0.032916030534350105,-0.024381679389313002,-0.01195038167939022,-0.013963195800781262,0.003857421875000027,0.9992492675781238
434,-0.051053435114504886,0.02141984732824425,-1.782942748091604,-0.001756164550781262,0.004589843750000027,1.006695556640624
435,0.010015267175571552,0.02141984732824425,0.10255343511450277,-0.003465148925781262,0.002392578125000027,0.9998596191406238
436,0.002381679389311886,0.01378625954198471,-0.019583969465649886,0.0003190307617187381,-0.001757812499999973,1.000347900390624
437,-0.02815267175572611,-0.009114503816793918,-0.034851145038168996,-0.002000305175781262,0.002026367187500027,0.9959533691406238
438,-0.051053435114504886,0.12829007633587786,0.049118320610685995,0.0004411010742187381,-0.0006591796874999729,1.000836181640624
439,-0.05868702290076433,-1.9556793893129771,-0.004316793893130777,0.002150085449218738,-0.00041503906249997294,0.9913146972656238
440,-0.012885496183207001,-0.054916030534351165,0.018583969465647776,-0.012986633300781262,-0.004077148437499973,0.9975402832031238
441,-0.02815267175572611,-0.15415267175572522,0.0033167938931288887,-0.001389953613281262,-0.002490234374999973,1.003887939453124
442,-0.05868702290076433,-1.9709465648854962,0.11782061068702188,0.016066101074218738,0.001416015625000027,1.001446533203124
443,-0.1273893129771002,-0.024381679389313002,0.12545419847328154,-0.007249328613281262,0.001049804687500027,0.9997375488281238
444,0.010015267175571552,-0.047282442748091624,0.05675190839694566,-0.004807922363281262,0.002880859375000027,0.9990051269531238
445,-0.05868702290076433,1.9145496183206105,0.07201908396946477,-0.0001692504882812619,0.00043945312500002706,0.9986389160156238
446,-0.020519083969466667,0.0672213740458015,-0.05011832061068788,-0.002488586425781262,0.003613281250000027,0.9998596191406238
447,-0.012885496183207001,0.08248854961832058,0.07201908396946477,0.002028015136718738,0.001049804687500027,0.9930236816406238
448,-0.08158778625954288,0.04432061068702288,0.12545419847328154,-0.0004133911132812619,0.001416015625000027,0.9964416503906238
449,-0.02815267175572611,-0.001480916030534376,0.11018702290076243,0.015577819824218738,-0.003344726562499973,1.001568603515624
450,-0.005251908396947558,-1.925145038167939,-0.019583969465649886,0.002516296386718738,-0.001635742187499973,1.005596923828124
451,0.10925190839694565,-0.07018320610687026,0.1636221374045792,0.004469421386718738,-0.001269531249999973,1.018292236328124
452,0.002381679389311886,0.02905343511450379,0.05675190839694566,0.004469421386718738,-0.001757812499999973,0.9964416503906238
453,-0.012885496183207001,-0.03201526717557254,-0.034851145038168996,0.0008073120117187381,0.003369140625000027,1.000958251953124
454,-0.13502290076335988,0.02141984732824425,-0.06538549618320699,0.0009293823242187381,-0.002734374999999973,1.017071533203124
455,0.032916030534350105,-0.009114503816793918,-0.034851145038168996,0.001661804199218738,0.002026367187500027,1.000103759765624
456,0.010015267175571552,-0.047282442748091624,-0.01195038167939022,-0.001878234863281262,-0.0009033203124999729,0.9955871582031238
457,-0.02815267175572611,0.13592366412213736,0.049118320610685995,-0.004685852050781262,7.324218750002706e-05,1.002667236328124
458,-0.020519083969466667,-0.001480916030534376,0.049118320610685995,0.0005631713867187381,-0.003588867187499973,0.9963195800781238
459,-0.1121221374045811,-0.07781679389312979,-0.02721755725190933,-0.003709289550781262,0.0005615234375000271,1.017559814453124
460,-0.07395419847328344,1.9145496183206105,-0.06538549618320699,0.001295593261718738,0.001782226562500027,1.002545166015624
461,0.010015267175571552,-0.01674809160305346,-0.04248473282442844,-0.013108703613281262,0.003979492187500027,1.002423095703124
462,-0.051053435114504886,1.8992824427480917,0.018583969465647776,-0.003953430175781262,-0.003100585937499973,1.000592041015624
463,-0.08922137404580255,-0.009114503816793918,0.010950381679388332,0.0004411010742187381,0.002026367187500027,1.005474853515624
464,-0.05868702290076433,0.02141984732824425,0.10255343511450277,-4.718017578126191e-05,-0.003588867187499973,1.000958251953124
465,-0.02815267175572611,0.16645801526717557,0.0033167938931288887,0.002760437011718738,-0.0007812499999999729,0.9988830566406238
466,-0.08922137404580255,-0.047282442748091624,-0.08828625954198577,-0.001023742675781262,-0.001635742187499973,1.003643798828124
467,-0.11975572519084077,-0.01674809160305346,-0.019583969465649886,0.001051452636718738,0.00019531250000002706,1.001080322265624
468,0.02528244274809066,-0.001480916030534376,0.0033167938931288887,0.001173522949218738,0.007031250000000027,0.9960754394531238
469,-0.066320610687024,0.05195419847328242,-0.0806526717557261,0.014967468261718738,0.00031738281250002706,0.9994934082031238
470,-0.066320610687024,0.01378625954198471,0.17125572519083865,-0.001512023925781262,-0.001025390624999973,1.005596923828124
471,-0.21899236641221465,-0.08545038167938934,0.07201908396946477,7.489013671873809e-05,-0.001269531249999973,1.005474853515624
472,0.002381679389311886,1.8992824427480917,0.14072137404580065,0.002516296386718738,0.003247070312500027,1.001934814453124
473,0.002381679389311886,0.12065648854961829,0.08728625954198366,-0.010301086425781262,0.002880859375000027,1.007183837890624
474,0.05581679389312888,0.09012213740458012,0.018583969465647776,-0.003098937988281262,0.006665039062500027,0.9941223144531238
475,0.08635114503816688,0.09012213740458012,-0.18752290076335965,0.001539733886718738,0.002636718750000027,1.000225830078124
476,0.048183206106869214,-0.07018320610687026,-0.15698854961832165,0.015455749511718738,-0.002978515624999973,0.9981506347656238
477,-0.11975572519084077,0.02141984732824425,0.04148473282442655,-0.004319641113281262,-0.0009033203124999729,0.9993713378906238
478,0.002381679389311886,1.8992824427480917,0.10255343511450277,0.001173522949218738,-0.005053710937499973,1.003521728515624
479,0.04054961832060977,1.9145496183206105,0.07965267175572421,-0.0006575317382812619,0.001538085937500027,0.9980285644531238
480,0.048183206106869214,-0.07018320610687026,0.05675190839694566,-0.003831359863281262,0.002148437500000027,1.000347900390624
481,-0.012885496183207001,-0.009114503816793918,0.010950381679388332,0.003370788574218738,-0.003222656249999973,0.9972961425781238
482,0.10161832061068599,0.1053893129770992,0.09491984732824332,-0.013230773925781262,-0.00017089843749997294,1.000592041015624
483,0.002381679389311886,-0.024381679389313002,-0.034851145038168996,7.489013671873809e-05,0.004467773437500027,0.9996154785156238
484,-0.05868702290076433,-0.009114503816793918,-0.06538549618320699,-0.0004133911132812619,-0.001269531249999973,0.9976623535156238
485,0.048183206106869214,0.08248854961832058,0.010950381679388332,-0.001756164550781262,0.002148437500000027,0.9958312988281238
486,0.02528244274809066,0.01378625954198471,0.033851145038166885,0.003004577636718738,-0.002978515624999973,1.004132080078124
487,0.017648854961830995,0.02905343511450379,0.0643854961832051,-0.002244445800781262,-0.003100585937499973,0.9975402832031238
488,-0.005251908396947558,1.9221832061068702,0.04148473282442655,-0.001878234863281262,0.001171875000000027,1.001080322265624
489,-0.035786259541985777,0.05958778625954196,0.04148473282442655,0.0001969604492187381,-4.882812499997294e-05,0.9981506347656238
490,0.07108396946564777,0.09012213740458012,-0.02721755725190933,-0.014085266113281262,0.001049804687500027,1.002056884765624
491,-0.020519083969466667,0.1053893129770992,0.010950381679388332,-0.009568664550781262,0.0006835937500000271,0.9972961425781238
492,0.032916030534350105,0.07485496183206104,0.08728625954198366,-0.002122375488281262,-0.004199218749999973,1.000347900390624
493,0.048183206106869214,-0.001480916030534376,0.11018702290076243,-0.003465148925781262,-0.001147460937499973,1.000958251953124
494,-0.005251908396947558,-0.0625496183206107,-0.05011832061068788,-0.002122375488281262,0.001660156250000027,0.9948547363281238
495,0.017648854961830995,0.1053893129770992,0.0033167938931288887,0.002028015136718738,-4.882812499997294e-05,0.9975402832031238
496,-0.051053435114504886,0.02905343511450379,0.026217557251907442,0.002638366699218738,-0.001025390624999973,1.011456298828124
497,0.02528244274809066,-0.09308396946564888,0.05675190839694566,-0.001878234863281262,0.003857421875000027,0.9976623535156238
498,0.08635114503816688,0.08248854961832058,-0.05775190839694755,0.005690124511718738,-0.004199218749999973,1.000225830078124
499,0.02528244274809066,0.0672213740458015,0.08728625954198366,-0.002244445800781262,-0.002856445312499973,1.001934814453124
500,0.13978625954198365,0.02141984732824425,0.10255343511450277,0.003004577636718738,0.004833984375000027,0.9982727050781238
501,-0.15029007633587876,0.1053893129770992,0.049118320610685995,-0.012010070800781262,-0.001879882812499973,1.007305908203124
502,0.048183206106869214,1.9221832061068702,0.11018702290076243,-0.001634094238281262,-0.002368164062499973,0.9970520019531238
503,-0.012885496183207001,-1.940412213740458,0.04148473282442655,0.007887390136718738,-0.001635742187499973,1.003765869140624
504,0.07871755725190743,0.04432061068702288,-0.0806526717557261,-0.0004133911132812619,0.002270507812500027,1.008648681640624
505,-0.13502290076335988,0.09775572519083967,0.0643854961832051,0.001173522949218738,0.00043945312500002706,0.9988830566406238
506,0.06345038167938832,0.05958778625954196,0.1483549618320601,-0.0006575317382812619,0.003979492187500027,1.001324462890624
507,-0.11975572519084077,-1.9480458015267177,0.08728625954198366,0.0005631713867187381,0.0008056640625000271,0.9999816894531238
508,0.09398473282442654,0.04432061068702288,0.08728625954198366,0.0006852416992187381,0.002148437500000027,0.9994934082031238
509,0.002381679389311886,-0.14651908396946567,0.23232442748091486,-0.001878234863281262,-0.0007812499999999729,1.007305908203124
510,-0.02815267175572611,-0.10071755725190842,0.04148473282442655,0.015211608886718738,-0.001635742187499973,0.9996154785156238
511,0.02528244274809066,0.04432061068702288,-0.1798893129771002,-0.0005354614257812619,0.004711914062500027,1.001446533203124
512,-0.02815267175572611,0.09775572519083967,0.04148473282442655,-0.004441711425781262,0.003735351562500027,1.001812744140624
513,0.15505343511450276,1.9145496183206105,0.07201908396946477,-0.004075500488281262,0.001904296875000027,1.000958251953124
514,-0.066320610687024,0.05195419847328242,0.07965267175572421,-0.0007796020507812619,0.001171875000000027,0.9958312988281238
515,0.07871755725190743,0.12829007633587786,0.1483549618320601,-0.002000305175781262,-0.007983398437499973,1.000958251953124
516,0.032916030534350105,0.09012213740458012,-1.7524083969465658,-0.013841125488281262,0.003857421875000027,1.002545166015624
517,0.002381679389311886,-1.9175114503816795,0.0033167938931288887,-0.003465148925781262,-0.0005371093749999729,1.000958251953124
518,0.06345038167938832,-0.08545038167938934,0.0643854961832051,-4.718017578126191e-05,0.002270507812500027,0.9936340332031238
519,-0.04341984732824522,0.07485496183206104,-0.10355343511450488,0.016188171386718738,0.004101562500000027,0.9992492675781238
520,-0.08158778625954288,0.09012213740458012,0.07201908396946477,-0.0006575317382812619,0.005566406250000027,0.9970520019531238
521,0.10161832061068599,-0.07018320610687026,0.049118320610685995,0.0003190307617187381,-0.002612304687499973,0.9893615722656238
522,-0.09685496183206199,-0.001480916030534376,0.05675190839694566,-0.003587219238281262,0.0005615234375000271,1.001934814453124
523,-0.012885496183207001,-0.1159847328244275,0.010950381679388332,0.014601257324218738,0.00043945312500002706,0.9961975097656238
524,0.09398473282442654,0.08248854961832058,0.10255343511450277,-0.0007796020507812619,0.0009277343750000271,0.9994934082031238
525,0.08635114503816688,-0.024381679389313002,-0.06538549618320699,-4.718017578126191e-05,-0.003588867187499973,0.9983947753906238
526,0.017648854961830995,-1.8793435114503818,0.033851145038166885,-0.003831359863281262,0.002636718750000027,1.006817626953124
527,0.032916030534350105,0.04432061068702288,-0.034851145038168996,-0.001145812988281262,-0.002612304687499973,1.005352783203124
528,-0.08158778625954288,-0.09308396946564888,0.049118320610685995,0.003126647949218738,0.002514648437500027,0.9889953613281238
529,-0.08158778625954288,0.07485496183206104,2.0872862595419837,-0.004441711425781262,0.003002929687500027,1.004132080078124
530,-0.05868702290076433,0.05958778625954196,0.04148473282442655,0.003370788574218738,0.004345703125000027,1.003277587890624
531,-0.020519083969466667,-0.07781679389312979,0.07965267175572421,-0.002244445800781262,0.003002929687500027,0.9998596191406238
532,0.02528244274809066,1.8992824427480917,0.12545419847328154,0.001417663574218738,-0.004931640624999973,0.9938781738281238
533,-0.012885496183207001,0.1435572519083969,0.08728625954198366,-0.007371398925781262,0.0006835937500000271,1.006573486328124
534,0.1168854961832051,0.05195419847328242,0.04148473282442655,-0.001389953613281262,0.0005615234375000271,1.001202392578124
535,-0.02815267175572611,0.02141984732824425,0.07201908396946477,-0.0004133911132812619,0.003857421875000027,1.002789306640624
536,0.010015267175571552,-0.001480916030534376,-0.004316793893130777,-0.0001692504882812619,0.001171875000000027,1.003521728515624
537,-0.066320610687024,-0.054916030534351165,0.05675190839694566,-0.002732727050781262,0.003125000000000027,0.9996154785156238
538,0.10161832061068599,0.0672213740458015,0.04148473282442655,0.015455749511718738,-0.001147460937499973,0.9990051269531238
539,0.05581679389312888,-1.940412213740458,-0.034851145038168996,0.0003190307617187381,0.004345703125000027,0.9949768066406238
540,0.12451908396946476,0.01378625954198471,-0.14172137404580254,-0.013474914550781262,-0.005419921874999973,1.004132080078124
541,-0.11975572519084077,-0.03201526717557254,0.1788893129770983,-0.0009016723632812619,-0.002124023437499973,1.004620361328124
542,-0.051053435114504886,0.03668702290076333,0.14072137404580065,0.014235046386718738,0.002392578125000027,0.9974182128906238
543,-0.035786259541985777,-0.08545038167938934,0.08728625954198366,0.002150085449218738,-0.0006591796874999729,1.018902587890624
544,0.08635114503816688,0.02905343511450379,-0.01195038167939022,0.015089538574218738,0.00043945312500002706,1.016705322265624
545,-0.1121221374045811,-0.1846870229007634,-0.0806526717557261,0.002028015136718738,7.324218750002706e-05,1.004254150390624
546,0.07108396946564777,-0.01674809160305346,0.12545419847328154,0.001783874511718738,-0.002612304687499973,1.006329345703124
547,0.032916030534350105,0.09012213740458012,0.07201908396946477,0.0005631713867187381,-0.001025390624999973,0.9987609863281238
548,0.08635114503816688,-1.940412213740458,-0.034851145038168996,-0.001389953613281262,-0.001513671874999973,1.001690673828124
549,0.12451908396946476,-0.03964885496183208,0.0033167938931288887,0.006788757324218738,0.002026367187500027,0.9892395019531238
550,-0.04341984732824522,1.891648854961832,0.13308778625954099,-0.0007796020507812619,-0.0005371093749999729,0.9997375488281238
551,0.2313893129770983,-0.07018320610687026,2.0567519083969454,-0.0006575317382812619,-0.00029296874999997294,0.9986389160156238
552,0.18558778625954098,0.04432061068702288,0.17125572519083865,0.0005631713867187381,-0.0009033203124999729,0.9970520019531238
553,0.10161832061068599,-0.07018320610687026,0.12545419847328154,-0.003221008300781262,0.001538085937500027,1.007183837890624
554,-0.051053435114504886,1.9145496183206105,0.010950381679388332,-0.013474914550781262,-0.002124023437499973,1.002301025390624
555,-0.066320610687024,0.006152671755725165,0.018583969465647776,-0.006516906738281262,0.001538085937500027,1.002545166015624
556,-0.08922137404580255,0.1435572519083969,0.12545419847328154,-0.0001692504882812619,-0.0005371093749999729,1.002056884765624
557,0.02528244274809066,-0.01674809160305346,0.10255343511450277,0.015944030761718738,0.002270507812500027,1.002178955078124
558,0.06345038167938832,0.09775572519083967,0.10255343511450277,0.001783874511718738,-0.001147460937499973,1.017437744140624
559,-0.04341984732824522,-0.0625496183206107,0.09491984732824332,0.0004411010742187381,0.001782226562500027,0.9992492675781238
560,-0.035786259541985777,1.8840152671755725,0.04148473282442655,0.002638366699218738,0.00019531250000002706,0.9983947753906238
561,0.09398473282442654,-0.001480916030534376,-0.07301908396946666,-0.001023742675781262,0.0008056640625000271,1.018170166015624
562,-0.05868702290076433,-0.07018320610687026,-0.11118702290076432,0.005812194824218738,-0.001269531249999973,1.000103759765624
563,0.08635114503816688,-0.01674809160305346,-0.04248473282442844,-0.003831359863281262,-0.00041503906249997294,1.002545166015624
564,-0.035786259541985777,-1.9633129770992366,0.04148473282442655,-0.0002913208007812619,0.004223632812500027,1.000103759765624
565,0.048183206106869214,0.02905343511450379,-0.02721755725190933,0.001783874511718738,-0.001147460937499973,1.005841064453124
566,-0.005251908396947558,1.8763816793893129,0.10255343511450277,0.0009293823242187381,-0.003100585937499973,0.9889953613281238
567,-0.005251908396947558,1.8305801526717558,-0.01195038167939022,-0.002000305175781262,0.002880859375000027,1.000347900390624
568,0.04054961832060977,0.09012213740458012,-0.034851145038168996,-0.012742492675781262,-0.002856445312499973,1.001080322265624
569,0.032916030534350105,-1.9556793893129771,-0.14172137404580254,-0.005662414550781262,-0.002612304687499973,0.9971740722656238
570,-0.11975572519084077,-0.054916030534351165,0.033851145038166885,0.015699890136718738,0.004345703125000027,0.9983947753906238
571,0.048183206106869214,0.17409160305343507,-0.034851145038168996,0.001051452636718738,-0.00017089843749997294,1.002789306640624
572,0.1168854961832051,-0.03201526717557254,0.09491984732824332,0.015211608886718738,-0.002612304687499973,1.004010009765624
573,0.06345038167938832,-1.9175114503816795,0.09491984732824332,0.003492858886718738,-0.0006591796874999729,0.9968078613281238
574,-0.07395419847328344,0.07485496183206104,0.026217557251907442,-0.012742492675781262,-0.001879882812499973,1.002301025390624
575,0.032916030534350105,0.12065648854961829,0.04148473282442655,0.002028015136718738,-0.001879882812499973,0.9998596191406238
576,-0.08158778625954288,0.07485496183206104,-0.004316793893130777,-0.004075500488281262,-0.002124023437499973,1.002667236328124
577,-0.035786259541985777,0.07485496183206104,0.026217557251907442,0.003492858886718738,-0.003222656249999973,0.9969299316406238
578,0.07108396946564777,1.8992824427480917,0.05675190839694566,0.0001969604492187381,-0.005786132812499973,1.003765869140624
579,-0.035786259541985777,0.01378625954198471,0.13308778625954099,0.013990905761718738,0.00043945312500002706,0.9987609863281238
580,0.07871755725190743,1.891648854961832,0.033851145038166885,0.001051452636718738,-0.003100585937499973,0.9988830566406238
581,-0.051053435114504886,-1.9327786259541986,2.0720190839694648,-0.002000305175781262,-0.001635742187499973,0.9932678222656238
582,-0.020519083969466667,1.8611145038167938,0.0643854961832051,0.004957702636718738,0.002270507812500027,0.9992492675781238
583,0.07108396946564777,0.05195419847328242,-0.1646221374045811,-0.002732727050781262,0.0006835937500000271,0.9999816894531238
584,-0.051053435114504886,0.19699236641221374,0.05675190839694566,-0.002244445800781262,0.00031738281250002706,0.9930236816406238
585,0.048183206106869214,0.02141984732824425,-0.11882061068702376,-0.001267883300781262,0.002270507812500027,1.019146728515624
586,-0.08922137404580255,-0.03201526717557254,0.018583969465647776,0.001905944824218738,-0.005664062499999973,1.007427978515624
587,0.02528244274809066,-0.07781679389312979,2.0414847328244266,-0.001023742675781262,-0.002612304687499973,1.005718994140624
588,-0.11975572519084077,-0.001480916030534376,0.04148473282442655,-0.0009016723632812619,0.001782226562500027,0.9986389160156238
589,-0.035786259541985777,-1.9556793893129771,2.0720190839694648,-0.001145812988281262,-0.001635742187499973,0.9981506347656238
590,0.10925190839694565,-0.03201526717557254,-0.01195038167939022,-0.013108703613281262,0.00043945312500002706,1.003399658203124
591,-0.05868702290076433,-0.01674809160305346,-0.034851145038168996,-0.001512023925781262,-0.003466796874999973,0.9953430175781238
592,-0.02815267175572611,-0.024381679389313002,0.018583969465647776,-0.013230773925781262,0.005200195312500027,0.9964416503906238
593,0.04054961832060977,0.1435572519083969,0.10255343511450277,-0.001145812988281262,0.003857421875000027,1.002911376953124
594,-0.005251908396947558,-0.001480916030534376,0.08728625954198366,-0.002610656738281262,-0.002001953124999973,1.002911376953124
595,0.07108396946564777,0.0672213740458015,2.0643854961832053,-0.002366516113281262,0.00043945312500002706,1.003155517578124
596,0.07108396946564777,-0.10071755725190842,-1.782942748091604,0.003614929199218738,0.00043945312500002706,1.008038330078124
597,-0.035786259541985777,-0.01674809160305346,0.026217557251907442,0.016798522949218738,0.0005615234375000271,1.003155517578124
598,0.048183206106869214,-0.1312519083969466,-0.14172137404580254,-0.005906555175781262,-0.002124023437499973,0.9966857910156238
599,0.07108396946564777,0.13592366412213736,0.033851145038166885,-0.003587219238281262,0.004589843750000027,1.001202392578124
600,0.048183206106869214,-0.009114503816793918,-0.04248473282442844,-0.013719055175781262,0.001293945312500027,0.9949768066406238
601,0.048183206106869214,-0.08545038167938934,0.12545419847328154,-0.011643859863281262,-0.004931640624999973,1.003765869140624
602,0.002381679389311886,0.04432061068702288,-0.07301908396946666,-0.006028625488281262,-0.0007812499999999729,1.000714111328124
603,0.02528244274809066,0.02905343511450379,-0.004316793893130777,-0.003953430175781262,0.001538085937500027,1.001568603515624
604,-0.012885496183207001,0.02141984732824425,0.0643854961832051,-0.003465148925781262,-0.001879882812499973,1.000592041015624
605,0.048183206106869214,0.09012213740458012,0.049118320610685995,0.016920593261718738,-0.001025390624999973,1.000836181640624
606,0.02528244274809066,-0.07781679389312979,0.018583969465647776,0.001295593261718738,0.005200195312500027,1.019146728515624
607,-0.051053435114504886,0.02905343511450379,0.10255343511450277,0.001539733886718738,0.0006835937500000271,1.004742431640624
608,0.07108396946564777,-0.047282442748091624,0.033851145038166885,-0.003098937988281262,-0.001025390624999973,1.001080322265624
609,0.017648854961830995,0.02905343511450379,0.10255343511450277,-0.014085266113281262,-0.00041503906249997294,1.002301025390624
610,0.032916030534350105,0.08248854961832058,0.026217557251907442,0.002638366699218738,-4.882812499997294e-05,1.001812744140624
611,0.06345038167938832,-0.03201526717557254,0.07201908396946477,0.002150085449218738,0.00019531250000002706,0.9982727050781238
612,0.010015267175571552,0.09012213740458012,0.08728625954198366,0.003248718261718738,-0.0009033203124999729,0.9981506347656238
613,0.017648854961830995,0.0672213740458015,-0.02721755725190933,0.004103210449218738,-4.882812499997294e-05,0.9980285644531238
614,-0.020519083969466667,0.02905343511450379,-0.004316793893130777,-0.001145812988281262,-0.0006591796874999729,1.003887939453124
615,0.15505343511450276,0.09775572519083967,0.018583969465647776,0.0008073120117187381,-0.001269531249999973,0.9949768066406238
616,-0.05868702290076433,-0.09308396946564888,0.0643854961832051,7.489013671873809e-05,0.002880859375000027,0.9920471191406238
617,-0.09685496183206199,0.12065648854961829,0.09491984732824332,0.0009293823242187381,0.001782226562500027,0.9998596191406238
618,-0.066320610687024,0.11302290076335876,0.07965267175572421,-0.009690734863281262,-0.004077148437499973,0.9997375488281238
619,-0.005251908396947558,0.03668702290076333,-0.004316793893130777,0.002272155761718738,0.0009277343750000271,1.004132080078124
620,0.010015267175571552,0.02141984732824425,-0.05011832061068788,-0.002854797363281262,-0.001513671874999973,1.003033447265624
621,0.05581679389312888,-0.024381679389313002,-0.034851145038168996,0.002516296386718738,0.00019531250000002706,1.000714111328124
622,0.14741984732824331,0.04432061068702288,0.11782061068702188,-0.003953430175781262,-0.001635742187499973,0.9949768066406238
623,0.07108396946564777,1.9221832061068702,0.11018702290076243,0.005201843261718738,-0.004443359374999973,1.003155517578124
624,-0.09685496183206199,0.04432061068702288,0.11018702290076243,-0.012864562988281262,-0.002124023437499973,1.000836181640624
625,0.02528244274809066,0.0672213740458015,0.07965267175572421,0.004347351074218738,0.001293945312500027,1.002056884765624
626,-0.066320610687024,-0.01674809160305346,0.07201908396946477,0.001295593261718738,0.002514648437500027,1.002301025390624
627,-0.066320610687024,1.807679389312977,-0.05775190839694755,-0.013108703613281262,0.001049804687500027,1.001934814453124
628,-0.04341984732824522,-0.01674809160305346,0.04148473282442655,-0.004197570800781262,-0.0009033203124999729,1.000347900390624
629,0.032916030534350105,1.8458473282442747,0.0643854961832051,-0.014085266113281262,-0.003710937499999973,1.015606689453124
630,0.10161832061068599,-0.10835114503816796,-0.05011832061068788,0.001905944824218738,-0.003955078124999973,1.005230712890624
631,0.12451908396946476,-0.01674809160305346,0.05675190839694566,-0.005662414550781262,0.001416015625000027,0.9952209472656238
632,0.10925190839694565,0.0672213740458015,0.04148473282442655,-0.0006575317382812619,0.003002929687500027,1.006329345703124
633,0.05581679389312888,0.1053893129770992,-0.019583969465649886,-0.0009016723632812619,0.00019531250000002706,1.003887939453124
634,0.13978625954198365,0.01378625954198471,0.049118320610685995,0.004591491699218738,-0.0009033203124999729,0.9970520019531238
635,-0.09685496183206199,0.04432061068702288,0.049118320610685995,0.0008073120117187381,-0.00017089843749997294,0.9993713378906238
636,-0.07395419847328344,-0.07781679389312979,0.018583969465647776,0.016920593261718738,7.324218750002706e-05,1.000836181640624
637,0.07108396946564777,0.09775572519083967,0.1636221374045792,-0.001267883300781262,-4.882812499997294e-05,1.002789306640624
638,0.017648854961830995,0.09012213740458012,0.05675190839694566,-0.0006575317382812619,-0.0009033203124999729,1.002301025390624
639,-0.020519083969466667,0.01378625954198471,0.11018702290076243,0.002516296386718738,-4.882812499997294e-05,1.018170166015624
640,-0.10448854961832166,-0.07018320610687026,0.0033167938931288887,0.001173522949218738,-0.002124023437499973,0.9985168457031238
641,-0.1273893129771002,1.8992824427480917,0.033851145038166885,-0.005296203613281262,-0.001269531249999973,1.003277587890624
642,0.010015267175571552,-0.13888549618320611,0.026217557251907442,0.0003190307617187381,-0.002001953124999973,0.9960754394531238
643,0.02528244274809066,-0.10071755725190842,0.07965267175572421,0.001905944824218738,0.002148437500000027,0.9982727050781238
644,-0.051053435114504886,-0.1159847328244275,0.018583969465647776,-0.004075500488281262,-0.0009033203124999729,0.9954650878906238
645,0.010015267175571552,-0.0625496183206107,0.12545419847328154,-0.001145812988281262,-0.001879882812499973,1.015728759765624
646,-0.04341984732824522,0.15882442748091602,0.1483549618320601,0.001661804199218738,0.00031738281250002706,1.002911376953124
647,-0.02815267175572611,1.8840152671755725,0.1483549618320601,0.002394226074218738,-0.002734374999999973,1.002301025390624
648,0.04054961832060977,0.04432061068702288,-0.07301908396946666,0.002516296386718738,0.001293945312500027,0.9913146972656238
649,-0.08922137404580255,0.02905343511450379,-0.1646221374045811,0.001173522949218738,0.004467773437500027,1.002423095703124
650,0.04054961832060977,-1.9633129770992366,-0.0806526717557261,-0.013108703613281262,-0.0005371093749999729,0.9952209472656238
651,-0.005251908396947558,-0.0625496183206107,-0.004316793893130777,0.016920593261718738,0.001171875000000027,1.002423095703124
652,-0.10448854961832166,-0.001480916030534376,0.04148473282442655,0.001905944824218738,-0.004443359374999973,1.000347900390624
653,0.010015267175571552,-0.10071755725190842,0.018583969465647776,-0.005174133300781262,0.00031738281250002706,1.001812744140624
654,0.10161832061068599,-0.009114503816793918,0.0033167938931288887,-0.002976867675781262,-0.001635742187499973,0.9896057128906238
655,0.032916030534350105,0.03668702290076333,-0.05011832061068788,0.004835632324218738,0.00031738281250002706,1.017193603515624
656,0.17032061068702187,0.12829007633587786,0.12545419847328154,-0.003831359863281262,0.001171875000000027,0.9980285644531238
657,0.002381679389311886,-0.009114503816793918,-1.782942748091604,-0.001145812988281262,0.001293945312500027,0.9965637207031238
658,0.1321526717557242,0.15882442748091602,0.010950381679388332,0.003614929199218738,-0.001147460937499973,0.9991271972656238
659,0.002381679389311886,0.11302290076335876,0.026217557251907442,0.001783874511718738,-0.006884765624999973,1.003521728515624
660,0.017648854961830995,0.13592366412213736,-1.7753091603053446,-0.0002913208007812619,-0.002490234374999973,0.9983947753906238
661,0.048183206106869214,0.04432061068702288,0.018583969465647776,-0.001878234863281262,0.0006835937500000271,0.9935119628906238
662,-0.012885496183207001,0.0672213740458015,-0.01195038167939022,0.001051452636718738,0.001904296875000027,0.9985168457031238
663,-0.020519083969466667,0.09012213740458012,-0.08828625954198577,-0.001023742675781262,0.003247070312500027,0.9931457519531238
664,-0.08158778625954288,0.01378625954198471,0.10255343511450277,-0.013352844238281262,0.002880859375000027,1.002667236328124
665,0.07108396946564777,0.05958778625954196,0.018583969465647776,-0.0005354614257812619,-0.00041503906249997294,1.004010009765624
666,0.032916030534350105,0.05195419847328242,-0.004316793893130777,-0.002366516113281262,0.001049804687500027,1.002911376953124
667,-0.012885496183207001,0.02905343511450379,0.033851145038166885,-0.003098937988281262,0.005932617187500027,1.018658447265624
668,-0.020519083969466667,0.15882442748091602,0.018583969465647776,-0.002122375488281262,0.00043945312500002706,1.003887939453124
669,0.15505343511450276,-0.0625496183206107,-0.08828625954198577,-0.001389953613281262,-0.001269531249999973,1.001934814453124
670,-0.005251908396947558,0.006152671755725165,-0.034851145038168996,0.017042663574218738,-0.002246093749999973,1.000958251953124
671,0.07871755725190743,0.006152671755725165,-0.004316793893130777,0.002394226074218738,-0.004687499999999973,1.003765869140624
672,-0.07395419847328344,-0.009114503816793918,-0.01195038167939022,0.003492858886718738,-0.001147460937499973,0.9999816894531238
673,-0.04341984732824522,-0.10071755725190842,0.010950381679388332,0.002394226074218738,-0.001269531249999973,0.9964416503906238
674,-0.07395419847328344,1.9145496183206105,-0.01195038167939022,-0.014085266113281262,-0.001391601562499973,1.001080322265624
675,0.002381679389311886,0.0672213740458015,0.0643854961832051,0.004591491699218738,0.00019531250000002706,1.018292236328124
676,-0.07395419847328344,0.08248854961832058,0.1483549618320601,-0.0004133911132812619,0.001904296875000027,0.9999816894531238
677,0.10161832061068599,-0.1159847328244275,-0.09591984732824521,-0.012986633300781262,0.004467773437500027,1.002545166015624
678,-0.020519083969466667,-0.01674809160305346,-0.14172137404580254,-0.001756164550781262,0.001416015625000027,0.9975402832031238
679,0.048183206106869214,-0.07781679389312979,-0.12645419847328343,0.002516296386718738,-0.004077148437499973,0.9990051269531238
680,-0.02815267175572611,-0.047282442748091624,0.11782061068702188,0.001661804199218738,-0.002612304687499973,1.007061767578124
681,-0.07395419847328344,0.02905343511450379,0.11018702290076243,-0.0004133911132812619,-0.00041503906249997294,0.9990051269531238
682,0.010015267175571552,-0.10835114503816796,0.21705725190839598,7.489013671873809e-05,-0.001757812499999973,1.001202392578124
683,-0.10448854961832166,-0.03201526717557254,0.049118320610685995,0.0004411010742187381,0.002514648437500027,0.9959533691406238
684,0.09398473282442654,-0.03201526717557254,-0.004316793893130777,0.002272155761718738,0.003369140625000027,0.9959533691406238
685,-0.051053435114504886,0.01378625954198471,-0.01195038167939022,0.002882507324218738,-0.002246093749999973,1.000469970703124
686,0.032916030534350105,-0.054916030534351165,0.05675190839694566,0.0004411010742187381,-0.001025390624999973,0.9930236816406238
687,-0.012885496183207001,-0.009114503816793918,0.14072137404580065,-0.003221008300781262,0.001782226562500027,0.9948547363281238
688,0.08635114503816688,-0.009114503816793918,0.026217557251907442,0.0008073120117187381,-0.001147460937499973,0.9921691894531238
689,-0.066320610687024,-0.03964885496183208,-0.004316793893130777,-0.002488586425781262,0.003613281250000027,0.9977844238281238
690,0.1168854961832051,-1.9327786259541986,-0.019583969465649886,-0.006638977050781262,-0.001635742187499973,1.001324462890624
691,0.048183206106869214,1.891648854961832,0.018583969465647776,0.003126647949218738,0.001782226562500027,1.003765869140624
692,0.05581679389312888,0.08248854961832058,-0.09591984732824521,-0.001634094238281262,0.002270507812500027,1.002056884765624
693,-0.1273893129771002,0.05195419847328242,-0.05011832061068788,0.0008073120117187381,-0.004809570312499973,1.006329345703124
694,-0.02815267175572611,0.006152671755725165,0.05675190839694566,-0.002854797363281262,-0.001635742187499973,0.9952209472656238
695,0.07871755725190743,0.15119083969465646,-0.019583969465649886,-0.001267883300781262,-0.003344726562499973,1.000103759765624
696,0.05581679389312888,-0.024381679389313002,0.07965267175572421,-0.002366516113281262,-0.002856445312499973,1.006939697265624
697,0.04054961832060977,0.02141984732824425,0.018583969465647776,0.002028015136718738,0.00019531250000002706,0.9985168457031238
698,-0.15792366412213843,0.1053893129770992,0.17125572519083865,0.005201843261718738,0.00031738281250002706,1.001568603515624
699,0.13978625954198365,-1.9785801526717557,0.0033167938931288887,0.004713562011718738,-0.001757812499999973,0.9990051269531238
700,-0.11975572519084077,0.18172519083969463,0.049118320610685995,0.005568054199218738,-0.002246093749999973,1.002667236328124
701,-0.005251908396947558,1.9221832061068702,-0.08828625954198577,0.0009293823242187381,0.001416015625000027,0.9990051269531238
702,0.048183206106869214,-1.940412213740458,0.09491984732824332,-0.006150695800781262,0.00043945312500002706,1.002301025390624
703,0.07871755725190743,-0.009114503816793918,-0.01195038167939022,-0.002122375488281262,-0.002246093749999973,1.001690673828124
704,-0.02815267175572611,1.9221832061068702,0.08728625954198366,0.014845397949218738,0.001049804687500027,0.9975402832031238
705,0.08635114503816688,0.1053893129770992,2.094919847328243,-0.0007796020507812619,-0.002856445312499973,1.015850830078124
706,-0.012885496183207001,-0.024381679389313002,-0.05011832061068788,0.006544616699218738,0.0006835937500000271,0.9977844238281238
707,0.07108396946564777,0.08248854961832058,-0.13408778625954287,0.0001969604492187381,0.0008056640625000271,0.9948547363281238
708,-0.05868702290076433,0.15882442748091602,-0.0806526717557261,0.002394226074218738,-0.005419921874999973,0.9961975097656238
709,0.010015267175571552,0.07485496183206104,0.026217557251907442,-0.002366516113281262,-0.002490234374999973,0.9998596191406238
710,0.002381679389311886,0.1435572519083969,0.07965267175572421,-0.002976867675781262,-0.001513671874999973,1.003887939453124
711,0.048183206106869214,-0.001480916030534376,-0.08828625954198577,-0.0002913208007812619,-0.0007812499999999729,1.019757080078124
712,-0.10448854961832166,0.0672213740458015,0.09491984732824332,7.489013671873809e-05,-0.001513671874999973,1.007061767578124
713,0.010015267175571552,-0.03964885496183208,0.05675190839694566,-0.0005354614257812619,0.003979492187500027,1.002545166015624
714,-0.066320610687024,0.04432061068702288,0.010950381679388332,-0.001756164550781262,-0.001879882812499973,1.002056884765624
715,-0.1121221374045811,-0.10071755725190842,0.049118320610685995,0.015089538574218738,-0.00029296874999997294,1.005718994140624
716,-0.04341984732824522,-0.054916030534351165,0.11018702290076243,-0.0005354614257812619,-0.001757812499999973,1.017437744140624
717,-0.05868702290076433,0.05195419847328242,0.11018702290076243,-0.012620422363281262,-0.002978515624999973,1.001568603515624
718,-0.020519083969466667,1.9145496183206105,0.026217557251907442,0.002394226074218738,-0.002001953124999973,1.016339111328124
719,0.05581679389312888,0.0672213740458015,0.07201908396946477,0.016188171386718738,0.0005615234375000271,1.002789306640624
720,-0.005251908396947558,0.1053893129770992,0.0643854961832051,-0.012986633300781262,0.00019531250000002706,0.9953430175781238
721,-0.02815267175572611,1.9221832061068702,-0.0806526717557261,-0.001878234863281262,-0.003833007812499973,0.9957092285156238
722,0.032916030534350105,0.04432061068702288,-0.06538549618320699,0.015577819824218738,-0.001025390624999973,0.9987609863281238
723,0.05581679389312888,-1.9480458015267177,-0.12645419847328343,-0.0009016723632812619,0.00019531250000002706,1.000958251953124
724,0.1168854961832051,0.04432061068702288,-0.01195038167939022,-0.003831359863281262,0.002880859375000027,1.002545166015624
725,-0.04341984732824522,0.02905343511450379,-0.05011832061068788,-0.005296203613281262,0.00043945312500002706,0.9897277832031238
726,0.07871755725190743,-0.14651908396946567,-1.7524083969465658,-0.004075500488281262,0.001293945312500027,0.9950988769531238
727,0.04054961832060977,0.05195419847328242,-0.004316793893130777,0.0001969604492187381,-0.00029296874999997294,1.002423095703124
728,0.032916030534350105,-0.01674809160305346,0.13308778625954099,-0.007615539550781262,-0.001025390624999973,0.9980285644531238
729,-0.02815267175572611,-0.0625496183206107,-0.01195038167939022,0.0005631713867187381,-0.002246093749999973,1.001446533203124
730,-0.14265648854961932,1.8534809160305343,0.07965267175572421,0.0006852416992187381,0.00031738281250002706,0.9977844238281238
731,0.07871755725190743,-0.047282442748091624,-1.7371412213740467,-0.004563781738281262,-0.003710937499999973,1.017193603515624
732,-0.035786259541985777,0.05195419847328242,0.049118320610685995,-0.012986633300781262,-4.882812499997294e-05,0.9982727050781238
733,-0.04341984732824522,-1.9785801526717557,0.07965267175572421,-0.012010070800781262,-0.002001953124999973,1.001446533203124
734,-0.051053435114504886,-0.07781679389312979,0.0643854961832051,-4.718017578126191e-05,0.0008056640625000271,1.004742431640624
735,-0.005251908396947558,0.05958778625954196,-0.05775190839694755,0.003126647949218738,0.001049804687500027,1.000103759765624
736,-0.10448854961832166,0.05195419847328242,-0.08828625954198577,0.003981140136718738,0.003247070312500027,1.001690673828124
737,0.032916030534350105,-0.03201526717557254,0.026217557251907442,0.003004577636718738,0.002514648437500027,1.001446533203124
738,0.002381679389311886,0.07485496183206104,0.07965267175572421,0.003981140136718738,-0.001757812499999973,0.9932678222656238
739,0.12451908396946476,-0.17705343511450383,0.04148473282442655,-0.002122375488281262,7.324218750002706e-05,0.9950988769531238
740,0.010015267175571552,-0.10071755725190842,-0.019583969465649886,-0.002854797363281262,-0.0009033203124999729,1.000836181640624
741,-0.02815267175572611,-0.1159847328244275,2.117820610687022,0.004103210449218738,-0.00041503906249997294,0.9950988769531238
742,0.1168854961832051,0.05958778625954196,-0.034851145038168996,0.0008073120117187381,0.001538085937500027,0.9970520019531238
743,-0.02815267175572611,0.02141984732824425,0.049118320610685995,-0.003587219238281262,0.001293945312500027,0.9988830566406238
744,-0.08922137404580255,0.03668702290076333,-0.06538549618320699,0.015821960449218738,0.002880859375000027,0.9961975097656238
745,-0.005251908396947558,1.891648854961832,0.08728625954198366,-4.718017578126191e-05,0.005688476562500027,0.9979064941406238
746,0.02528244274809066,0.12065648854961829,0.08728625954198366,0.0004411010742187381,0.005566406250000027,0.9980285644531238
747,-0.051053435114504886,0.18172519083969463,0.12545419847328154,-0.012742492675781262,0.003491210937500027,0.9970520019531238
748,0.05581679389312888,-0.08545038167938934,0.0033167938931288887,0.003004577636718738,-0.002368164062499973,0.9974182128906238
749,0.017648854961830995,0.05195419847328242,0.010950381679388332,-0.0007796020507812619,-0.001513671874999973,0.9963195800781238
750,0.017648854961830995,0.04432061068702288,-0.06538549618320699,0.0008073120117187381,0.001538085937500027,0.9952209472656238
751,0.2161221374045792,-0.03201526717557254,0.0033167938931288887,-0.002122375488281262,0.001293945312500027,0.9942443847656238
752,-0.04341984732824522,-0.16941984732824428,0.04148473282442655,-0.002732727050781262,-0.0007812499999999729,1.010113525390624
753,-0.012885496183207001,0.01378625954198471,0.1636221374045792,-0.0006575317382812619,-0.001513671874999973,0.9998596191406238
754,0.017648854961830995,-0.1159847328244275,0.010950381679388332,-0.0005354614257812619,0.002514648437500027,1.002545166015624
755,-0.08158778625954288,0.09012213740458012,0.08728625954198366,-0.0001692504882812619,-0.004199218749999973,0.9999816894531238
756,0.010015267175571552,0.09012213740458012,-0.05775190839694755,-4.718017578126191e-05,-0.002368164062499973,1.005474853515624
757,0.05581679389312888,0.16645801526717557,0.018583969465647776,-4.718017578126191e-05,0.002148437500000027,1.000958251953124
758,-0.09685496183206199,0.05195419847328242,-0.05775190839694755,-0.0004133911132812619,0.001538085937500027,0.9996154785156238
759,0.02528244274809066,0.05195419847328242,-0.07301908396946666,0.001295593261718738,-0.004565429687499973,1.000225830078124
760,0.07871755725190743,-0.16941984732824428,0.07965267175572421,-0.012132141113281262,-0.0005371093749999729,0.9959533691406238
761,0.09398473282442654,0.04432061068702288,-0.15698854961832165,-0.002732727050781262,-0.004077148437499973,1.016827392578124
762,-0.02815267175572611,-0.01674809160305346,0.21705725190839598,-4.718017578126191e-05,0.003002929687500027,0.9968078613281238
763,0.15505343511450276,-0.024381679389313002,-0.004316793893130777,-0.001389953613281262,0.00031738281250002706,0.9993713378906238
764,0.032916030534350105,-0.07781679389312979,0.026217557251907442,0.0009293823242187381,0.006665039062500027,1.001568603515624
765,0.07871755725190743,0.02141984732824425,-0.019583969465649886,7.489013671873809e-05,-0.003588867187499973,0.9985168457031238
766,-0.08158778625954288,0.09012213740458012,0.018583969465647776,0.0009293823242187381,-0.00029296874999997294,0.9979064941406238
767,0.017648854961830995,-0.03201526717557254,-0.004316793893130777,-0.013352844238281262,0.00019531250000002706,0.9991271972656238
768,0.002381679389311886,1.8992824427480917,0.14072137404580065,0.001783874511718738,-0.003588867187499973,1.005718994140624
769,-0.020519083969466667,0.02905343511450379,0.04148473282442655,0.005445983886718738,0.002514648437500027,0.9988830566406238
770,0.10925190839694565,0.006152671755725165,0.018583969465647776,-0.003587219238281262,0.00043945312500002706,0.9990051269531238
771,0.010015267175571552,-0.10071755725190842,-0.10355343511450488,-0.014085266113281262,0.004711914062500027,0.9969299316406238
772,0.02528244274809066,1.891648854961832,0.07965267175572421,-0.003343078613281262,-0.0009033203124999729,0.9957092285156238
773,0.05581679389312888,-0.047282442748091624,-0.07301908396946666,-0.002732727050781262,0.004345703125000027,0.9976623535156238
774,0.1168854961832051,0.006152671755725165,0.04148473282442655,-0.002244445800781262,0.001782226562500027,1.005230712890624
775,-0.07395419847328344,0.1053893129770992,-0.05011832061068788,-0.0009016723632812619,0.003247070312500027,1.008038330078124
776,0.08635114503816688,0.02141984732824425,0.09491984732824332,-0.001756164550781262,0.00019531250000002706,0.9942443847656238
777,-0.051053435114504886,1.906916030534351,0.04148473282442655,-0.001267883300781262,-0.00029296874999997294,0.9990051269531238
778,0.017648854961830995,-0.08545038167938934,-0.09591984732824521,-0.012986633300781262,-0.002978515624999973,1.000592041015624
779,-0.012885496183207001,0.02905343511450379,-0.01195038167939022,-0.013108703613281262,0.001171875000000027,1.003521728515624
780,-0.08158778625954288,0.19699236641221374,0.049118320610685995,-0.003343078613281262,0.002026367187500027,1.000469970703124
781,-0.005251908396947558,0.1053893129770992,0.010950381679388332,0.004835632324218738,0.004589843750000027,0.9900939941406238
782,-0.07395419847328344,-0.024381679389313002,0.05675190839694566,0.0004411010742187381,0.00019531250000002706,1.004132080078124
783,0.07871755725190743,0.24279389312977095,0.026217557251907442,-0.0009016723632812619,-0.005297851562499973,0.9968078613281238
784,-0.05868702290076433,-0.047282442748091624,0.04148473282442655,0.001539733886718738,-0.00029296874999997294,0.9942443847656238
785,0.032916030534350105,-0.001480916030534376,0.11018702290076243,0.0001969604492187381,-0.005297851562499973,1.000836181640624
786,0.04054961832060977,0.03668702290076333,0.010950381679388332,0.004347351074218738,-0.005908203124999973,0.9988830566406238
787,-0.10448854961832166,-0.01674809160305346,-0.07301908396946666,-0.001878234863281262,0.00019531250000002706,0.9976623535156238
788,0.032916030534350105,0.1053893129770992,-0.004316793893130777,-0.0006575317382812619,-0.001025390624999973,1.019512939453124
789,0.048183206106869214,0.20462595419847324,0.05675190839694566,-0.001512023925781262,-0.001513671874999973,1.009991455078124
790,-0.1121221374045811,-0.01674809160305346,0.0643854961832051,-0.001267883300781262,-0.00029296874999997294,0.9969299316406238
791,-0.020519083969466667,-0.054916030534351165,0.026217557251907442,0.007399108886718738,-0.00029296874999997294,1.001568603515624
792,-0.035786259541985777,-1.9633129770992366,0.13308778625954099,-0.0002913208007812619,0.002514648437500027,0.9970520019531238
793,-0.020519083969466667,-0.10071755725190842,-0.004316793893130777,-0.001145812988281262,-4.882812499997294e-05,0.9948547363281238
794,0.17032061068702187,-0.03201526717557254,-0.08828625954198577,0.001783874511718738,0.001660156250000027,1.002545166015624
795,0.06345038167938832,-1.940412213740458,-0.02721755725190933,0.002516296386718738,0.001660156250000027,0.9985168457031238
796,-0.066320610687024,0.1435572519083969,0.04148473282442655,-0.0002913208007812619,-0.001879882812499973,1.007672119140624
797,0.10161832061068599,-0.0625496183206107,0.0033167938931288887,-0.012864562988281262,0.00019531250000002706,0.9972961425781238
798,-0.05868702290076433,0.13592366412213736,0.14072137404580065,0.0008073120117187381,0.0008056640625000271,0.9985168457031238
799,-0.020519083969466667,0.02905343511450379,0.033851145038166885,-0.001389953613281262,0.0005615234375000271,1.001690673828124
800,0.10161832061068599,-0.21522137404580155,0.033851145038166885,-0.0004133911132812619,-0.001147460937499973,0.9996154785156238
801,-0.05868702290076433,-1.8869770992366413,0.018583969465647776,-0.0006575317382812619,0.004467773437500027,0.9961975097656238
802,-0.035786259541985777,-0.03964885496183208,-0.02721755725190933,-0.001756164550781262,-0.001269531249999973,0.9990051269531238
803,0.06345038167938832,0.04432061068702288,-0.01195038167939022,-0.001023742675781262,-0.001147460937499973,0.9971740722656238
804,0.032916030534350105,-0.13888549618320611,0.10255343511450277,-0.0006575317382812619,0.003491210937500027,0.9985168457031238
805,-0.035786259541985777,-0.01674809160305346,-0.004316793893130777,-0.0006575317382812619,-0.002001953124999973,0.9886291503906238
806,-0.08922137404580255,-0.01674809160305346,0.04148473282442655,0.001783874511718738,-0.002124023437499973,0.9966857910156238
807,-0.012885496183207001,1.9145496183206105,-0.004316793893130777,-0.0002913208007812619,-0.002490234374999973,1.003765869140624
808,0.05581679389312888,-0.07018320610687026,-0.05775190839694755,-0.012010070800781262,0.0006835937500000271,1.002545166015624
809,0.048183206106869214,0.05195419847328242,-0.21805725190839786,-0.002488586425781262,0.001660156250000027,1.002545166015624
810,0.002381679389311886,0.006152671755725165,0.0033167938931288887,-0.002732727050781262,-0.001635742187499973,1.005474853515624
811,0.02528244274809066,0.05195419847328242,-0.0806526717557261,-0.001512023925781262,0.002758789062500027,1.003521728515624
812,0.002381679389311886,0.02905343511450379,-0.05775190839694755,-0.001145812988281262,-0.005053710937499973,0.9970520019531238
813,-0.066320610687024,0.04432061068702288,0.08728625954198366,-0.004319641113281262,-0.001879882812499973,0.9933898925781238
814,0.02528244274809066,0.03668702290076333,0.05675190839694566,0.004103210449218738,-0.002246093749999973,0.9992492675781238
815,0.048183206106869214,0.05195419847328242,0.026217557251907442,0.015821960449218738,-0.002368164062499973,1.000714111328124
816,-0.05868702290076433,-0.024381679389313002,-0.08828625954198577,-0.003098937988281262,0.003125000000000027,0.9987609863281238
817,-0.05868702290076433,0.1053893129770992,-0.05775190839694755,-0.003221008300781262,-0.002490234374999973,0.9992492675781238
818,0.12451908396946476,-0.03201526717557254,-0.05011832061068788,0.003859069824218738,-0.00041503906249997294,0.9949768066406238
819,0.08635114503816688,0.05195419847328242,-0.0806526717557261,0.003614929199218738,-0.002001953124999973,1.000592041015624
820,0.02528244274809066,-0.07781679389312979,0.0033167938931288887,-0.0001692504882812619,-0.005541992187499973,0.9988830566406238
821,-0.1121221374045811,0.01378625954198471,-0.034851145038168996,0.001417663574218738,-0.0006591796874999729,1.004986572265624
822,0.13978625954198365,0.09775572519083967,-0.02721755725190933,-0.0009016723632812619,0.002270507812500027,1.000103759765624
823,0.06345038167938832,0.05958778625954196,0.0643854961832051,-0.001634094238281262,-0.005908203124999973,1.018658447265624
824,0.048183206106869214,-0.03201526717557254,-0.09591984732824521,-0.004929992675781262,0.001171875000000027,1.002178955078124
825,0.048183206106869214,1.891648854961832,-0.14172137404580254,0.002882507324218738,0.001782226562500027,1.004132080078124
826,0.10925190839694565,0.05195419847328242,-0.10355343511450488,0.015699890136718738,-0.002612304687499973,1.000592041015624
827,0.1321526717557242,-0.1159847328244275,-1.782942748091604,0.003492858886718738,-0.00041503906249997294,1.001934814453124
828,0.002381679389311886,0.03668702290076333,0.10255343511450277,-0.004929992675781262,0.002758789062500027,0.9918029785156238
829,0.017648854961830995,0.02905343511450379,0.09491984732824332,0.002394226074218738,0.00019531250000002706,0.9983947753906238
830,0.032916030534350105,1.9221832061068702,-0.12645419847328343,0.001539733886718738,-0.001757812499999973,0.9979064941406238
831,0.06345038167938832,0.15119083969465646,0.018583969465647776,-0.003587219238281262,0.00031738281250002706,0.9994934082031238
832,-0.066320610687024,-1.9556793893129771,-0.05011832061068788,0.002516296386718738,-0.002490234374999973,1.002423095703124
833,-0.02815267175572611,0.01378625954198471,0.0643854961832051,0.001173522949218738,-0.00041503906249997294,1.002423095703124
834,0.05581679389312888,0.0672213740458015,0.07965267175572421,0.004469421386718738,0.0006835937500000271,1.002056884765624
835,-0.005251908396947558,0.19699236641221374,0.10255343511450277,-0.0005354614257812619,0.001293945312500027,1.003643798828124
836,0.06345038167938832,0.08248854961832058,0.026217557251907442,0.002272155761718738,-0.001025390624999973,0.9983947753906238
837,-0.066320610687024,-0.1159847328244275,0.018583969465647776,-4.718017578126191e-05,-0.001635742187499973,0.9981506347656238
838,-0.051053435114504886,1.8458473282442747,-0.04248473282442844,-0.003709289550781262,-0.005541992187499973,0.9983947753906238
839,0.07108396946564777,0.04432061068702288,-0.004316793893130777,-0.0005354614257812619,0.0005615234375000271,1.000225830078124
840,-0.02815267175572611,0.04432061068702288,0.026217557251907442,0.003248718261718738,0.003247070312500027,1.004864501953124
841,-0.08158778625954288,0.0672213740458015,0.04148473282442655,-0.001267883300781262,0.004467773437500027,1.001202392578124
842,0.1168854961832051,0.07485496183206104,0.07201908396946477,0.0009293823242187381,0.004711914062500027,1.000958251953124
843,-0.05868702290076433,1.9145496183206105,0.18652290076335776,-0.0009016723632812619,-0.005297851562499973,1.006817626953124
844,0.12451908396946476,1.8382137404580152,-0.01195038167939022,0.002394226074218738,-0.002490234374999973,0.9994934082031238
845,-0.005251908396947558,-0.01674809160305346,0.0033167938931288887,0.002028015136718738,0.001538085937500027,0.9998596191406238
846,0.1168854961832051,-0.054916030534351165,-0.05775190839694755,0.016432312011718738,-0.001269531249999973,1.000958251953124
847,-0.07395419847328344,-0.15415267175572522,0.12545419847328154,-0.0007796020507812619,-0.002978515624999973,0.9980285644531238
848,-0.012885496183207001,-0.024381679389313002,0.07201908396946477,0.004225280761718738,0.00019531250000002706,1.001080322265624
849,-0.012885496183207001,-0.01674809160305346,0.12545419847328154,-0.002244445800781262,-0.003466796874999973,0.9970520019531238
850,0.017648854961830995,0.05195419847328242,-0.01195038167939022,-0.0006575317382812619,-4.882812499997294e-05,1.007061767578124
851,-0.035786259541985777,-1.8717099236641221,-0.06538549618320699,0.0003190307617187381,0.001171875000000027,1.004864501953124
852,0.002381679389311886,-1.9556793893129771,-0.019583969465649886,-0.0005354614257812619,-0.00017089843749997294,0.9946105957031238
853,0.08635114503816688,0.02905343511450379,0.049118320610685995,-0.004075500488281262,-0.00017089843749997294,0.9998596191406238
854,0.06345038167938832,0.19699236641221374,0.10255343511450277,-0.014085266113281262,0.0005615234375000271,1.018170166015624
855,0.10161832061068599,0.05195419847328242,0.07965267175572421,0.003492858886718738,0.0008056640625000271,0.9990051269531238
856,0.017648854961830995,0.19699236641221374,-0.034851145038168996,-0.002488586425781262,-0.002246093749999973,1.001202392578124
857,-0.020519083969466667,-0.054916030534351165,0.0033167938931288887,0.005690124511718738,-0.001757812499999973,1.000836181640624
858,0.002381679389311886,0.006152671755725165,0.07201908396946477,0.0004411010742187381,0.003125000000000027,1.002301025390624
859,0.24665648854961741,-0.1312519083969466,0.07965267175572421,0.003492858886718738,0.00043945312500002706,1.004620361328124
860,0.10161832061068599,0.12065648854961829,-0.02721755725190933,0.014967468261718738,0.002026367187500027,0.9969299316406238
861,0.032916030534350105,0.006152671755725165,0.05675190839694566,0.0005631713867187381,0.002026367187500027,0.9971740722656238
862,0.032916030534350105,-0.03964885496183208,-0.06538549618320699,0.0005631713867187381,0.00019531250000002706,0.9993713378906238
863,0.05581679389312888,0.0672213740458015,0.07201908396946477,-0.0005354614257812619,-0.004809570312499973,0.9990051269531238
864,0.02528244274809066,0.03668702290076333,0.049118320610685995,0.003981140136718738,-0.0009033203124999729,1.001080322265624
865,0.032916030534350105,0.1053893129770992,-0.09591984732824521,0.0008073120117187381,0.0008056640625000271,1.000347900390624
866,-0.035786259541985777,-0.001480916030534376,-0.0806526717557261,0.013502624511718738,0.0008056640625000271,1.000347900390624
867,-0.07395419847328344,0.02905343511450379,-0.11882061068702376,0.003981140136718738,-0.00017089843749997294,0.9996154785156238
868,0.07871755725190743,0.05195419847328242,0.010950381679388332,-0.001756164550781262,-0.001635742187499973,1.002178955078124
869,-0.07395419847328344,-0.001480916030534376,-0.01195038167939022,0.001173522949218738,-0.0006591796874999729,0.9970520019531238
870,-0.012885496183207001,-0.0625496183206107,0.07201908396946477,-0.003221008300781262,0.001171875000000027,0.9993713378906238
871,0.04054961832060977,0.16645801526717557,0.04148473282442655,-0.001267883300781262,-0.003100585937499973,0.9998596191406238
872,0.1321526717557242,1.8687480916030534,0.15598854961831954,0.002638366699218738,0.00031738281250002706,0.9974182128906238
873,-0.035786259541985777,0.09012213740458012,0.0643854961832051,-0.0006575317382812619,-0.002001953124999973,1.003765869140624
874,0.002381679389311886,0.02905343511450379,0.033851145038166885,0.0001969604492187381,0.001049804687500027,1.000347900390624
875,-0.035786259541985777,-0.009114503816793918,0.05675190839694566,-0.013596984863281262,0.002636718750000027,1.005841064453124
876,0.05581679389312888,-0.01674809160305346,-0.004316793893130777,-0.002732727050781262,0.004101562500000027,0.9976623535156238
877,0.08635114503816688,0.02141984732824425,0.14072137404580065,-0.0006575317382812619,0.004345703125000027,1.007427978515624
878,0.032916030534350105,0.02141984732824425,0.08728625954198366,-0.002976867675781262,-0.003344726562499973,1.003033447265624
879,-0.05868702290076433,-0.13888549618320611,0.1483549618320601,0.015821960449218738,-0.003100585937499973,0.9977844238281238
880,0.07108396946564777,-0.0625496183206107,0.10255343511450277,-0.003587219238281262,0.001171875000000027,0.9891174316406238
881,-0.035786259541985777,-0.10071755725190842,-0.004316793893130777,-0.0005354614257812619,-0.001879882812499973,1.005718994140624
882,-0.012885496183207001,0.2809618320610687,-0.04248473282442844,0.0004411010742187381,-0.007495117187499973,1.002178955078124
883,0.05581679389312888,0.01378625954198471,-0.12645419847328343,-0.0007796020507812619,-0.001879882812499973,0.9982727050781238
884,0.09398473282442654,1.8687480916030534,0.09491984732824332,-0.0006575317382812619,0.0005615234375000271,1.007672119140624
885,-0.05868702290076433,0.02141984732824425,-0.019583969465649886,0.016188171386718738,0.001416015625000027,1.002789306640624
886,0.048183206106869214,0.05195419847328242,0.11782061068702188,-0.011277648925781262,-0.003100585937499973,0.9991271972656238
887,0.04054961832060977,0.02905343511450379,-0.004316793893130777,-0.001756164550781262,-0.001147460937499973,1.005718994140624
888,-0.005251908396947558,-0.009114503816793918,-0.004316793893130777,0.001295593261718738,-0.001269531249999973,1.001446533203124
889,0.10925190839694565,-0.009114503816793918,-0.01195038167939022,-0.001267883300781262,0.002636718750000027,0.9904602050781238
890,-0.08158778625954288,-0.17705343511450383,-0.019583969465649886,-0.001756164550781262,0.003002929687500027,0.9974182128906238
891,-0.05868702290076433,1.8840152671755725,0.04148473282442655,-0.003831359863281262,0.0006835937500000271,0.9990051269531238
892,-0.08922137404580255,-0.009114503816793918,0.049118320610685995,-0.002000305175781262,0.001171875000000027,0.9988830566406238
893,0.08635114503816688,1.8763816793893129,0.11782061068702188,0.002760437011718738,-0.001757812499999973,1.003033447265624
894,-0.04341984732824522,0.05195419847328242,0.13308778625954099,-0.0009016723632812619,0.0006835937500000271,1.000469970703124
895,0.1321526717557242,-0.10071755725190842,-0.04248473282442844,0.002028015136718738,0.001293945312500027,0.9969299316406238
896,-0.13502290076335988,0.11302290076335876,-0.06538549618320699,0.003370788574218738,-0.004809570312499973,1.003033447265624
897,-0.09685496183206199,0.09775572519083967,0.09491984732824332,-0.010301086425781262,-0.001391601562499973,1.003887939453124
898,0.15505343511450276,1.9221832061068702,0.026217557251907442,-0.0002913208007812619,0.002026367187500027,1.005841064453124
899,0.032916030534350105,0.1053893129770992,0.018583969465647776,-0.001878234863281262,-0.005419921874999973,0.9889953613281238
900,-0.11975572519084077,-0.0625496183206107,-0.05011832061068788,-0.0007796020507812619,0.003125000000000027,0.9944885253906238
901,0.02528244274809066,-0.03201526717557254,0.018583969465647776,-0.002122375488281262,0.002270507812500027,0.9998596191406238
902,0.032916030534350105,-0.024381679389313002,0.13308778625954099,-0.0004133911132812619,0.001049804687500027,1.001934814453124
903,0.14741984732824331,-0.009114503816793918,-0.05011832061068788,0.003492858886718738,-0.001391601562499973,1.000592041015624
904,0.08635114503816688,-0.03964885496183208,0.026217557251907442,-0.001756164550781262,-0.002246093749999973,0.9886291503906238
905,0.06345038167938832,0.02141984732824425,0.07201908396946477,-0.013719055175781262,0.0009277343750000271,0.9977844238281238
906,0.12451908396946476,-1.9709465648854962,-0.004316793893130777,0.003736999511718738,0.004223632812500027,1.003399658203124
907,0.017648854961830995,0.04432061068702288,-0.05775190839694755,0.015333679199218738,-0.002856445312499973,0.9986389160156238
908,0.07871755725190743,1.9221832061068702,0.04148473282442655,-0.0005354614257812619,0.003857421875000027,1.001080322265624
909,-0.051053435114504886,0.04432061068702288,-0.08828625954198577,-0.0007796020507812619,-0.001025390624999973,1.002056884765624
910,0.1321526717557242,-0.08545038167938934,0.0033167938931288887,-0.013719055175781262,-0.0006591796874999729,1.001202392578124
911,0.06345038167938832,0.006152671755725165,-0.06538549618320699,0.004469421386718738,0.001049804687500027,0.9988830566406238
912,0.032916030534350105,0.1435572519083969,-0.01195038167939022,0.0005631713867187381,-0.005419921874999973,0.9993713378906238
913,0.048183206106869214,-0.001480916030534376,0.04148473282442655,-0.002000305175781262,0.002514648437500027,0.9963195800781238
914,0.10161832061068599,-0.09308396946564888,0.04148473282442655,-0.0004133911132812619,-0.005664062499999973,1.007794189453124
915,0.06345038167938832,0.01378625954198471,0.033851145038166885,-0.013108703613281262,-0.004687499999999973,1.000225830078124
916,0.032916030534350105,0.05195419847328242,0.0033167938931288887,-0.001145812988281262,0.0009277343750000271,1.003033447265624
917,0.032916030534350105,-0.001480916030534376,-0.004316793893130777,-0.002488586425781262,-0.00041503906249997294,0.9979064941406238
918,0.010015267175571552,-0.01674809160305346,-0.06538549618320699,-0.013474914550781262,-0.001391601562499973,0.9975402832031238
919,-0.051053435114504886,0.09012213740458012,0.0033167938931288887,-0.004929992675781262,-0.004809570312499973,1.008282470703124
920,0.002381679389311886,0.09012213740458012,0.05675190839694566,-0.013963195800781262,-0.004199218749999973,1.002301025390624
921,-0.08922137404580255,0.01378625954198471,0.018583969465647776,0.003370788574218738,0.0008056640625000271,1.000347900390624
922,-0.066320610687024,0.03668702290076333,0.11782061068702188,-0.013474914550781262,0.001904296875000027,0.9971740722656238
923,0.002381679389311886,0.0672213740458015,0.07965267175572421,-0.002488586425781262,-0.00029296874999997294,1.001568603515624
924,-0.035786259541985777,0.006152671755725165,0.09491984732824332,-0.013230773925781262,-0.005175781249999973,1.001812744140624
925,-0.04341984732824522,-1.940412213740458,-0.02721755725190933,0.003614929199218738,0.004589843750000027,1.004498291015624
926,0.002381679389311886,1.8458473282442747,-0.05011832061068788,-0.0006575317382812619,0.003735351562500027,1.004254150390624
927,-0.066320610687024,0.09775572519083967,0.05675190839694566,-0.006761047363281262,-0.001269531249999973,1.001934814453124
928,0.048183206106869214,0.05195419847328242,0.04148473282442655,0.015821960449218738,-0.0007812499999999729,1.003765869140624
929,0.1168854961832051,-0.1159847328244275,0.033851145038166885,-0.0007796020507812619,0.001293945312500027,1.000714111328124
930,0.10925190839694565,1.906916030534351,0.12545419847328154,-0.003831359863281262,-0.002490234374999973,1.002545166015624
931,-0.1121221374045811,0.22752671755725185,-0.11118702290076432,0.014601257324218738,-0.0007812499999999729,1.016827392578124
