Number,Gyro_X,Gyro_Y,Gyro_Z,Acc_X,Acc_Y,Acc_Z
1,-0.0074083969465655874,-0.014133587786259921,0.01001908396946477,-0.0066330566406250305,0.0037579345703124822,1.0019493408203124
2,0.007858778625953466,-0.006500000000000367,0.01001908396946477,0.0006911621093749695,-0.012111206054687518,0.9934044189453124
3,0.00022519083969391174,0.008767175572518715,-0.012881679389313866,0.01558374023437497,-0.0018572998046875178,1.0195274658203124
4,-0.0074083969465655874,-0.006500000000000367,-0.005248091603054311,-0.0010178222656250305,0.0015606689453124822,1.0029259033203124
5,-0.0074083969465655874,-0.006500000000000367,0.017652671755724297,-0.0024826660156250305,0.015232543945312482,1.0004844970703124
6,0.007858778625953466,-0.014133587786259921,-0.012881679389313866,-0.0063889160156250305,0.004978637695312482,0.9921837158203124
7,-0.0074083969465655874,-0.014133587786259921,0.01001908396946477,-0.0017502441406250305,0.0025372314453124822,0.9977989501953124
8,-0.0074083969465655874,-0.006500000000000367,-0.005248091603054311,-0.00907446289062503,-0.0025897216796875178,1.0151329345703124
9,0.00022519083969391174,-0.006500000000000367,0.0023854961832052157,0.00020288085937496952,-0.00039245605468751776,0.9995079345703124
10,0.007858778625953466,0.024034351145037797,0.0023854961832052157,0.0014235839843749695,0.015232543945312482,1.0009727783203124
11,-0.0074083969465655874,-0.006500000000000367,0.01001908396946477,-0.0012619628906250305,0.004246215820312482,0.9902305908203124
12,0.00022519083969391174,0.016400763358778242,0.0023854961832052157,-0.01005102539062503,-0.014064331054687518,0.9963341064453124
13,0.00022519083969391174,0.0011335877862591603,0.01001908396946477,-0.0002854003906250305,0.014744262695312482,0.9982872314453124
14,-0.015041984732825142,-0.006500000000000367,0.0023854961832052157,-0.01151586914062503,0.004978637695312482,0.9965782470703124
15,-0.0074083969465655874,0.008767175572518715,-0.005248091603054311,0.0028884277343749695,-0.0008807373046875178,1.0039024658203124
16,0.00022519083969391174,0.0011335877862591603,0.0023854961832052157,0.01778100585937497,-0.0023455810546875178,1.0002403564453124
17,0.007858778625953466,0.0011335877862591603,-0.005248091603054311,-0.0049240722656250305,0.0027813720703124822,1.0043907470703124
18,0.023125954198472576,-0.014133587786259921,-0.005248091603054311,-0.0044357910156250305,0.012546997070312482,1.0034141845703124
19,0.015492366412213021,0.008767175572518715,0.025286259541983824,-0.0022385253906250305,-0.0011248779296875178,1.0136680908203124
20,0.007858778625953466,0.008767175572518715,0.01001908396946477,0.0036208496093749695,0.012058715820312482,1.0034141845703124
21,-0.0074083969465655874,-0.006500000000000367,-0.005248091603054311,-0.01053930664062503,-0.0021014404296875178,0.9977989501953124
22,0.007858778625953466,-0.006500000000000367,0.01001908396946477,-0.01053930664062503,-0.0016131591796875178,0.9995079345703124
23,-0.022675572519084697,-0.006500000000000367,0.01001908396946477,0.0045974121093749695,0.014011840820312482,1.0017052001953124
24,-0.0074083969465655874,-0.014133587786259921,0.0023854961832052157,-0.0061447753906250305,0.0032696533203124822,0.9995079345703124
25,0.00022519083969391174,0.008767175572518715,-0.005248091603054311,0.0011794433593749695,0.004734497070312482,1.0009727783203124
26,0.00022519083969391174,0.008767175572518715,-0.005248091603054311,-0.01151586914062503,-0.014308471679687518,1.0141563720703124
27,0.007858778625953466,0.008767175572518715,0.01001908396946477,0.0004470214843749695,0.0005841064453124822,0.9892540283203124
28,0.007858778625953466,-0.006500000000000367,-0.005248091603054311,0.0033767089843749695,0.007664184570312482,1.0014610595703124
29,0.007858778625953466,-0.021767175572519476,0.0023854961832052157,-0.0010178222656250305,0.0005841064453124822,0.9938927001953124
30,-0.0074083969465655874,-0.014133587786259921,-0.005248091603054311,0.0021560058593749695,0.012791137695312482,1.0102501220703124
31,0.023125954198472576,-0.006500000000000367,0.0023854961832052157,-0.0012619628906250305,0.004246215820312482,1.0026817626953124
32,-0.0074083969465655874,0.008767175572518715,0.01001908396946477,-0.00858618164062503,0.0015606689453124822,0.9887657470703124
33,0.007858778625953466,0.008767175572518715,-0.028148854961832948,-0.0027268066406250305,0.0027813720703124822,0.9941368408203124
34,-0.0074083969465655874,-0.006500000000000367,0.0023854961832052157,0.0006911621093749695,-0.0006365966796875178,1.0180626220703124
35,0.00022519083969391174,-0.006500000000000367,0.0023854961832052157,-0.0041916503906250305,0.0020489501953124822,0.9941368408203124
36,0.00022519083969391174,-0.014133587786259921,0.0023854961832052157,-0.00834204101562503,0.0008282470703124822,0.9995079345703124
37,0.00022519083969391174,0.0011335877862591603,0.01001908396946477,0.0033767089843749695,9.582519531248224e-05,1.0060997314453124
38,-0.015041984732825142,-0.006500000000000367,0.0023854961832052157,-0.0012619628906250305,-0.00039245605468751776,0.9992637939453124
39,-0.022675572519084697,-0.006500000000000367,0.0023854961832052157,0.0006911621093749695,-0.0035662841796875178,1.0004844970703124
40,0.00022519083969391174,0.0011335877862591603,-0.012881679389313866,-0.0022385253906250305,0.007175903320312482,0.9953575439453124
41,-0.0074083969465655874,-0.014133587786259921,0.01001908396946477,-0.0012619628906250305,-0.0006365966796875178,0.9909630126953124
42,0.007858778625953466,-0.006500000000000367,0.017652671755724297,-0.0041916503906250305,0.004246215820312482,1.0163536376953124
43,-0.015041984732825142,0.0011335877862591603,0.01001908396946477,0.0026442871093749695,0.0032696533203124822,0.9902305908203124
44,-0.0074083969465655874,-0.014133587786259921,0.0023854961832052157,-0.0015061035156250305,-0.014064331054687518,0.9914512939453124
45,-0.0074083969465655874,0.008767175572518715,-0.005248091603054311,-0.0071213378906250305,0.0020489501953124822,0.9897423095703124
46,0.00022519083969391174,-0.014133587786259921,0.0023854961832052157,-0.0012619628906250305,-0.006007690429687518,1.0192833251953124
47,0.00022519083969391174,0.0011335877862591603,0.017652671755724297,-0.0066330566406250305,0.014744262695312482,0.9977989501953124
48,0.007858778625953466,0.008767175572518715,-0.005248091603054311,0.0006911621093749695,-0.004298706054687518,0.9987755126953124
49,-0.0074083969465655874,0.008767175572518715,0.01001908396946477,-0.01102758789062503,0.015476684570312482,1.0024376220703124
50,-0.0074083969465655874,-0.006500000000000367,-0.005248091603054311,-0.0022385253906250305,0.0018048095703124822,1.0195274658203124
51,0.007858778625953466,0.016400763358778242,0.0023854961832052157,-0.0024826660156250305,0.0020489501953124822,0.9929161376953124
52,-0.0074083969465655874,0.0011335877862591603,-0.012881679389313866,0.0021560058593749695,-0.015285034179687518,1.0004844970703124
53,-0.0074083969465655874,-0.014133587786259921,0.017652671755724297,0.00020288085937496952,0.0010723876953124822,1.0183067626953124
54,0.007858778625953466,-0.021767175572519476,0.01001908396946477,-0.0027268066406250305,-0.004054565429687518,0.9975548095703124
55,-0.0074083969465655874,0.024034351145037797,0.01001908396946477,-0.0002854003906250305,-0.012843627929687518,1.0014610595703124
56,0.007858778625953466,0.016400763358778242,-0.012881679389313866,-0.0024826660156250305,0.014988403320312482,1.0073204345703124
57,0.015492366412213021,0.016400763358778242,-0.005248091603054311,-0.0012619628906250305,0.006931762695312482,0.9999962158203124
58,0.00022519083969391174,-0.014133587786259921,0.01001908396946477,-0.0022385253906250305,0.0008282470703124822,0.9887657470703124
59,0.015492366412213021,0.016400763358778242,0.0023854961832052157,-0.0034592285156250305,-0.004054565429687518,0.9894981689453124
60,-0.0074083969465655874,0.016400763358778242,-0.012881679389313866,0.0043532714843749695,0.0022930908203124822,0.9963341064453124
61,-0.0074083969465655874,0.008767175572518715,0.0023854961832052157,-0.0041916503906250305,-0.005763549804687518,0.9960899658203124
62,0.007858778625953466,-0.006500000000000367,-0.028148854961832948,-0.01078344726562503,-0.0038104248046875178,1.0031700439453124
63,0.007858778625953466,-0.006500000000000367,-0.012881679389313866,-0.0024826660156250305,-0.0030780029296875178,0.9995079345703124
64,0.00022519083969391174,-0.006500000000000367,0.0023854961832052157,0.0050856933593749695,0.0015606689453124822,1.0134239501953124
65,0.023125954198472576,0.0011335877862591603,0.017652671755724297,0.01485131835937497,-0.0023455810546875178,1.0122032470703124
66,-0.0074083969465655874,-0.006500000000000367,0.0023854961832052157,-0.0015061035156250305,-0.013820190429687518,0.9914512939453124
67,0.03075954198473213,0.024034351145037797,-0.012881679389313866,-0.0024826660156250305,-0.004786987304687518,1.0048790283203124
68,0.007858778625953466,0.024034351145037797,0.0023854961832052157,-0.0027268066406250305,9.582519531248224e-05,1.0131798095703124
69,0.007858778625953466,0.0011335877862591603,-0.012881679389313866,-4.1259765625030476e-05,-0.0025897216796875178,1.0168419189453124
70,0.007858778625953466,0.008767175572518715,-0.005248091603054311,0.0014235839843749695,-0.0018572998046875178,1.0058555908203124
71,0.007858778625953466,0.0011335877862591603,0.01001908396946477,-0.0034592285156250305,0.005711059570312482,0.9890098876953124
72,0.007858778625953466,-0.014133587786259921,-0.012881679389313866,0.0009353027343749695,0.0027813720703124822,1.0009727783203124
73,0.00022519083969391174,-0.014133587786259921,0.01001908396946477,0.00020288085937496952,-0.014064331054687518,0.9934044189453124
74,0.00022519083969391174,0.0011335877862591603,-0.012881679389313866,-0.0037033691406250305,-0.0033221435546875178,0.9892540283203124
75,0.023125954198472576,0.0011335877862591603,0.0023854961832052157,0.0033767089843749695,0.0035137939453124822,0.9931602783203124
76,-0.0074083969465655874,0.008767175572518715,0.01001908396946477,-0.0002854003906250305,0.0010723876953124822,0.9995079345703124
77,0.00022519083969391174,-0.021767175572519476,-0.005248091603054311,0.0011794433593749695,-0.0028338623046875178,0.9987755126953124
78,0.007858778625953466,-0.006500000000000367,0.0023854961832052157,-4.1259765625030476e-05,0.0037579345703124822,0.9902305908203124
79,0.023125954198472576,0.024034351145037797,0.01001908396946477,0.0024001464843749695,-0.0033221435546875178,0.9951134033203124
80,-0.015041984732825142,0.008767175572518715,-0.005248091603054311,-0.0024826660156250305,-0.013576049804687518,1.0012169189453124
81,-0.0074083969465655874,-0.006500000000000367,-0.005248091603054311,0.0019118652343749695,0.0013165283203124822,0.9936485595703124
82,-0.0074083969465655874,-0.006500000000000367,0.017652671755724297,-0.0039475097656250305,-0.004298706054687518,0.9980430908203124
83,0.007858778625953466,-0.014133587786259921,0.01001908396946477,-0.0037033691406250305,-0.0006365966796875178,0.9973106689453124
84,0.00022519083969391174,0.0011335877862591603,0.017652671755724297,-0.0019943847656250305,0.0035137939453124822,1.0180626220703124
85,-0.0074083969465655874,-0.021767175572519476,0.0023854961832052157,0.01582788085937497,0.0008282470703124822,0.9999962158203124
86,-0.015041984732825142,0.008767175572518715,-0.012881679389313866,0.0031325683593749695,-0.012355346679687518,0.9995079345703124
87,0.00022519083969391174,0.0011335877862591603,0.01001908396946477,0.0021560058593749695,0.006443481445312482,0.9999962158203124
88,0.007858778625953466,0.0011335877862591603,0.0023854961832052157,-0.00883032226562503,-0.0008807373046875178,0.9892540283203124
89,0.007858778625953466,0.0011335877862591603,-0.012881679389313866,0.0019118652343749695,0.0018048095703124822,1.0158653564453124
90,0.015492366412213021,0.0011335877862591603,-0.005248091603054311,0.0065505371093749695,-0.014064331054687518,0.9936485595703124
91,0.023125954198472576,0.0011335877862591603,0.0023854961832052157,-0.0015061035156250305,0.014744262695312482,0.9990196533203124
92,0.00022519083969391174,-0.006500000000000367,-0.005248091603054311,-0.01102758789062503,-0.0016131591796875178,1.0012169189453124
93,-0.015041984732825142,-0.006500000000000367,0.01001908396946477,-0.01078344726562503,-0.0011248779296875178,0.9912071533203124
94,0.00022519083969391174,0.0011335877862591603,0.0023854961832052157,0.0006911621093749695,0.0025372314453124822,0.9885216064453124
95,-0.0074083969465655874,0.031667938931297324,0.01001908396946477,-4.1259765625030476e-05,0.00033996582031248224,0.9985313720703124
96,0.007858778625953466,0.008767175572518715,-0.005248091603054311,-0.0022385253906250305,0.0013165283203124822,1.0019493408203124
97,-0.0074083969465655874,0.008767175572518715,-0.012881679389313866,0.00020288085937496952,-0.006007690429687518,1.0031700439453124
98,0.00022519083969391174,0.008767175572518715,-0.012881679389313866,0.0031325683593749695,0.0008282470703124822,1.0144005126953124
99,0.00022519083969391174,0.008767175572518715,0.017652671755724297,0.0021560058593749695,-0.0030780029296875178,1.0014610595703124
100,0.00022519083969391174,0.008767175572518715,-0.005248091603054311,-0.0012619628906250305,-0.00039245605468751776,1.0082969970703124
101,0.007858778625953466,0.008767175572518715,-0.005248091603054311,-0.0054123535156250305,-0.0008807373046875178,1.0031700439453124
102,0.00022519083969391174,0.0011335877862591603,0.0023854961832052157,0.0026442871093749695,9.582519531248224e-05,1.0012169189453124
103,-0.015041984732825142,0.031667938931297324,-0.005248091603054311,0.0004470214843749695,0.015232543945312482,0.9941368408203124
104,-0.0074083969465655874,-0.014133587786259921,-0.005248091603054311,-0.0012619628906250305,0.0005841064453124822,0.9985313720703124
105,0.00022519083969391174,-0.006500000000000367,-0.005248091603054311,-0.0032150878906250305,-0.004786987304687518,1.0029259033203124
106,0.007858778625953466,-0.014133587786259921,-0.005248091603054311,0.0045974121093749695,0.0022930908203124822,1.0004844970703124
107,-0.0074083969465655874,0.008767175572518715,0.01001908396946477,0.0026442871093749695,-0.005519409179687518,0.9926719970703124
108,-0.015041984732825142,0.0011335877862591603,0.01001908396946477,0.0053298339843749695,0.004978637695312482,1.0183067626953124
109,0.00022519083969391174,0.008767175572518715,-0.012881679389313866,-0.0015061035156250305,0.014011840820312482,1.0007286376953124
110,-0.015041984732825142,0.008767175572518715,-0.012881679389313866,-0.0005295410156250305,-0.013331909179687518,1.0026817626953124
111,0.00022519083969391174,-0.006500000000000367,0.0023854961832052157,0.0004470214843749695,0.0037579345703124822,0.9897423095703124
112,0.00022519083969391174,0.008767175572518715,0.017652671755724297,-0.0010178222656250305,-0.0030780029296875178,1.0002403564453124
113,0.007858778625953466,-0.006500000000000367,-0.005248091603054311,0.0009353027343749695,0.013767700195312482,1.0024376220703124
114,-0.015041984732825142,0.0011335877862591603,0.0023854961832052157,-0.0005295410156250305,0.0035137939453124822,1.0058555908203124
115,-0.0074083969465655874,0.008767175572518715,0.01001908396946477,-0.0032150878906250305,-0.013820190429687518,0.9999962158203124
116,0.015492366412213021,0.0011335877862591603,-0.012881679389313866,0.0014235839843749695,0.014011840820312482,0.9985313720703124
117,0.00022519083969391174,0.0011335877862591603,0.01001908396946477,0.01826928710937497,-0.0028338623046875178,1.0031700439453124
118,-0.022675572519084697,0.016400763358778242,0.01001908396946477,0.01802514648437497,0.012546997070312482,0.9995079345703124
119,0.015492366412213021,0.0011335877862591603,-0.012881679389313866,-0.0027268066406250305,-0.014064331054687518,0.9894981689453124
120,-0.015041984732825142,-0.014133587786259921,-0.020515267175573393,0.0009353027343749695,-0.0011248779296875178,0.9914512939453124
121,0.015492366412213021,0.008767175572518715,0.01001908396946477,-0.0029709472656250305,-0.0028338623046875178,1.0014610595703124
122,0.015492366412213021,0.024034351145037797,0.01001908396946477,0.0048415527343749695,-0.005519409179687518,0.9995079345703124
123,0.03075954198473213,0.016400763358778242,-0.005248091603054311,0.0077712402343749695,0.0030255126953124822,0.9919395751953124
124,-0.0074083969465655874,-0.006500000000000367,-0.005248091603054311,-0.01102758789062503,-0.00014831542968751776,1.0012169189453124
125,0.00022519083969391174,0.016400763358778242,-0.012881679389313866,0.0011794433593749695,-0.012843627929687518,0.9995079345703124
126,-0.0074083969465655874,0.016400763358778242,-0.012881679389313866,-0.0054123535156250305,0.004246215820312482,1.0173302001953124
127,-0.0074083969465655874,0.0011335877862591603,-0.005248091603054311,0.0014235839843749695,-0.0011248779296875178,1.0021934814453124
128,-0.015041984732825142,0.008767175572518715,0.017652671755724297,0.0004470214843749695,0.0010723876953124822,0.9982872314453124
129,-0.015041984732825142,0.0011335877862591603,0.0023854961832052157,0.0014235839843749695,0.0015606689453124822,0.9963341064453124
130,0.007858778625953466,0.0011335877862591603,0.0023854961832052157,-0.0015061035156250305,0.004002075195312482,0.9953575439453124
131,-0.0074083969465655874,-0.006500000000000367,0.0023854961832052157,0.0014235839843749695,0.014255981445312482,0.9973106689453124
132,-0.0074083969465655874,0.0011335877862591603,-0.005248091603054311,-0.0027268066406250305,-0.0008807373046875178,1.0021934814453124
133,0.00022519083969391174,-0.021767175572519476,0.01001908396946477,-0.0017502441406250305,0.014011840820312482,0.9894981689453124
134,0.00022519083969391174,0.008767175572518715,0.017652671755724297,0.0019118652343749695,-0.006984252929687518,0.9975548095703124
135,0.00022519083969391174,-0.006500000000000367,0.017652671755724297,-0.0012619628906250305,0.0008282470703124822,1.0060997314453124
136,-0.0074083969465655874,-0.006500000000000367,0.0023854961832052157,-0.0002854003906250305,-0.013087768554687518,0.9997520751953124
137,-0.0074083969465655874,0.008767175572518715,-0.005248091603054311,-0.0017502441406250305,0.006687622070312482,0.9938927001953124
138,0.023125954198472576,-0.014133587786259921,-0.005248091603054311,-0.0012619628906250305,0.012302856445312482,0.9990196533203124
139,-0.0074083969465655874,0.024034351145037797,-0.012881679389313866,-0.0017502441406250305,-0.0018572998046875178,1.0039024658203124
140,-0.015041984732825142,0.0011335877862591603,-0.005248091603054311,0.0004470214843749695,0.0022930908203124822,0.9953575439453124
141,0.023125954198472576,0.0011335877862591603,0.01001908396946477,-0.01078344726562503,0.0013165283203124822,1.0014610595703124
142,0.00022519083969391174,-0.021767175572519476,0.0023854961832052157,-0.0029709472656250305,-0.014064331054687518,0.9965782470703124
143,0.015492366412213021,0.008767175572518715,0.0023854961832052157,0.0016677246093749695,-0.010890502929687518,0.9960899658203124
144,0.015492366412213021,0.0011335877862591603,0.0023854961832052157,-0.0017502441406250305,-0.0006365966796875178,0.9992637939453124
145,0.00022519083969391174,-0.006500000000000367,-0.020515267175573393,-0.0005295410156250305,-0.0011248779296875178,1.0017052001953124
146,-0.0074083969465655874,0.0011335877862591603,0.017652671755724297,0.0024001464843749695,-0.014308471679687518,0.9999962158203124
147,0.007858778625953466,-0.006500000000000367,0.0023854961832052157,-0.0019943847656250305,0.004978637695312482,0.9894981689453124
148,0.00022519083969391174,0.0011335877862591603,-0.005248091603054311,-0.0037033691406250305,0.004246215820312482,1.0173302001953124
149,0.00022519083969391174,0.008767175572518715,-0.020515267175573393,-0.0017502441406250305,0.0008282470703124822,1.0007286376953124
150,0.00022519083969391174,-0.006500000000000367,0.01001908396946477,-0.0044357910156250305,-0.006984252929687518,0.9943809814453124
151,-0.0074083969465655874,0.016400763358778242,-0.012881679389313866,-0.0007736816406250305,-0.0013690185546875178,0.9968223876953124
152,0.00022519083969391174,0.024034351145037797,0.0023854961832052157,0.0009353027343749695,-0.0013690185546875178,1.0034141845703124
153,0.007858778625953466,-0.006500000000000367,0.01001908396946477,0.0070388183593749695,0.0032696533203124822,0.9938927001953124
154,0.007858778625953466,0.008767175572518715,-0.012881679389313866,-0.0012619628906250305,0.0030255126953124822,0.9987755126953124
155,0.007858778625953466,-0.006500000000000367,0.017652671755724297,0.0006911621093749695,-0.012355346679687518,0.9885216064453124
156,0.007858778625953466,-0.006500000000000367,0.0023854961832052157,-0.0027268066406250305,0.0005841064453124822,0.9975548095703124
157,0.007858778625953466,0.0011335877862591603,-0.012881679389313866,0.0014235839843749695,-0.0035662841796875178,0.9997520751953124
158,-0.0074083969465655874,-0.006500000000000367,0.01001908396946477,-0.01078344726562503,-0.0006365966796875178,0.9973106689453124
159,0.007858778625953466,0.016400763358778242,-0.005248091603054311,0.0006911621093749695,0.00033996582031248224,0.9977989501953124
160,0.00022519083969391174,-0.006500000000000367,-0.005248091603054311,-0.0005295410156250305,0.0018048095703124822,0.9953575439453124
161,0.00022519083969391174,0.008767175572518715,-0.012881679389313866,0.01802514648437497,0.013035278320312482,0.9965782470703124
162,0.007858778625953466,0.008767175572518715,0.0023854961832052157,-0.0007736816406250305,-0.015040893554687518,0.9999962158203124
163,0.023125954198472576,0.024034351145037797,0.017652671755724297,-0.0002854003906250305,0.014500122070312482,0.9985313720703124
164,0.015492366412213021,0.0011335877862591603,0.01001908396946477,0.00020288085937496952,0.0030255126953124822,0.9953575439453124
165,0.007858778625953466,0.016400763358778242,-0.005248091603054311,-0.0015061035156250305,-0.0033221435546875178,0.9892540283203124
166,0.00022519083969391174,-0.006500000000000367,-0.012881679389313866,-0.0012619628906250305,0.004734497070312482,0.9999962158203124
167,0.00022519083969391174,0.0011335877862591603,-0.005248091603054311,0.0031325683593749695,-0.0006365966796875178,0.9997520751953124
168,0.00022519083969391174,-0.006500000000000367,0.0023854961832052157,-0.0037033691406250305,0.0010723876953124822,1.0129356689453124
169,0.007858778625953466,0.0011335877862591603,-0.012881679389313866,-0.0005295410156250305,0.0022930908203124822,0.9968223876953124
170,0.00022519083969391174,0.008767175572518715,0.01001908396946477,-0.0012619628906250305,0.0008282470703124822,1.0036583251953124
171,0.007858778625953466,0.0011335877862591603,0.017652671755724297,0.00020288085937496952,-0.014796752929687518,0.9997520751953124
172,-0.0074083969465655874,0.0011335877862591603,-0.005248091603054311,0.01851342773437497,0.004734497070312482,0.9934044189453124
173,0.015492366412213021,0.0011335877862591603,-0.020515267175573393,0.0048415527343749695,-0.012599487304687518,0.9992637939453124
174,0.007858778625953466,-0.006500000000000367,0.017652671755724297,-0.0024826660156250305,0.015232543945312482,0.9924278564453124
175,0.007858778625953466,-0.006500000000000367,0.017652671755724297,-0.0056564941406250305,0.0015606689453124822,0.9885216064453124
176,0.00022519083969391174,0.016400763358778242,0.0023854961832052157,0.0014235839843749695,0.011814575195312482,1.0007286376953124
177,0.007858778625953466,0.016400763358778242,0.0023854961832052157,0.0021560058593749695,-0.0006365966796875178,0.9997520751953124
178,-0.0074083969465655874,0.0011335877862591603,-0.012881679389313866,0.0028884277343749695,-0.015529174804687518,0.9975548095703124
179,-0.0074083969465655874,0.008767175572518715,-0.005248091603054311,-0.00834204101562503,-0.011622924804687518,0.9963341064453124
180,-0.0074083969465655874,0.0011335877862591603,0.01001908396946477,0.00020288085937496952,0.0027813720703124822,0.9953575439453124
181,-0.0074083969465655874,0.0011335877862591603,0.01001908396946477,0.0026442871093749695,0.0037579345703124822,0.9912071533203124
182,0.00022519083969391174,-0.021767175572519476,0.0023854961832052157,-0.0034592285156250305,0.0005841064453124822,1.0014610595703124
183,0.023125954198472576,-0.021767175572519476,0.01001908396946477,-0.0012619628906250305,-0.0021014404296875178,1.0087852783203124
184,0.015492366412213021,0.008767175572518715,-0.012881679389313866,0.01533959960937497,0.0027813720703124822,1.0031700439453124
185,0.007858778625953466,0.008767175572518715,0.01001908396946477,-0.0007736816406250305,-0.012599487304687518,1.0024376220703124
186,0.007858778625953466,0.008767175572518715,0.01001908396946477,0.0014235839843749695,0.014744262695312482,0.9963341064453124
187,-0.0074083969465655874,0.016400763358778242,0.01001908396946477,-4.1259765625030476e-05,-0.0035662841796875178,1.0014610595703124
188,0.00022519083969391174,0.0011335877862591603,-0.005248091603054311,-0.0017502441406250305,9.582519531248224e-05,1.0034141845703124
189,-0.0074083969465655874,0.024034351145037797,0.01001908396946477,0.01729272460937497,-0.004298706054687518,0.9975548095703124
190,-0.0074083969465655874,-0.006500000000000367,-0.005248091603054311,0.00020288085937496952,0.004246215820312482,1.0168419189453124
191,0.00022519083969391174,-0.014133587786259921,0.0023854961832052157,-0.0017502441406250305,-0.0011248779296875178,0.9938927001953124
192,0.007858778625953466,-0.006500000000000367,0.01001908396946477,-0.0027268066406250305,0.0022930908203124822,1.0026817626953124
193,0.007858778625953466,-0.014133587786259921,0.025286259541983824,-0.0027268066406250305,-0.010890502929687518,1.0034141845703124
194,0.007858778625953466,0.031667938931297324,0.0023854961832052157,-0.0076096191406250305,-0.013820190429687518,0.9963341064453124
195,-0.0074083969465655874,0.016400763358778242,0.01001908396946477,0.0006911621093749695,-0.0021014404296875178,0.9890098876953124
196,0.007858778625953466,0.0011335877862591603,-0.012881679389313866,0.0006911621093749695,-0.014796752929687518,1.0021934814453124
197,0.023125954198472576,-0.006500000000000367,0.01001908396946477,0.0004470214843749695,-0.0023455810546875178,0.9894981689453124
198,-0.015041984732825142,-0.014133587786259921,-0.005248091603054311,0.01704858398437497,0.0030255126953124822,0.9956016845703124
199,0.015492366412213021,-0.021767175572519476,-0.005248091603054311,-0.0007736816406250305,-0.0018572998046875178,1.0019493408203124
200,0.00022519083969391174,0.008767175572518715,-0.012881679389313866,0.0021560058593749695,-0.0013690185546875178,0.9973106689453124
201,-0.022675572519084697,0.0011335877862591603,-0.012881679389313866,0.01656030273437497,-0.0025897216796875178,1.0029259033203124
202,-0.015041984732825142,0.016400763358778242,-0.028148854961832948,0.0014235839843749695,-0.013331909179687518,0.9990196533203124
203,0.007858778625953466,0.024034351145037797,-0.005248091603054311,-0.00809790039062503,-0.0013690185546875178,1.0112266845703124
204,-0.022675572519084697,0.0011335877862591603,0.01001908396946477,-0.00834204101562503,-0.013820190429687518,0.9975548095703124
205,0.00022519083969391174,0.0011335877862591603,0.0023854961832052157,0.01680444335937497,-0.0028338623046875178,0.9973106689453124
206,-0.015041984732825142,-0.006500000000000367,-0.012881679389313866,-0.0017502441406250305,-0.0023455810546875178,1.0029259033203124
207,0.015492366412213021,0.0011335877862591603,-0.005248091603054311,-0.0027268066406250305,0.014255981445312482,0.9953575439453124
208,-0.0074083969465655874,0.0011335877862591603,-0.012881679389313866,0.0026442871093749695,-0.0023455810546875178,1.0080528564453124
209,0.023125954198472576,-0.006500000000000367,0.01001908396946477,0.0028884277343749695,-0.015529174804687518,0.9890098876953124
210,0.007858778625953466,0.0011335877862591603,0.01001908396946477,-0.0049240722656250305,-0.0038104248046875178,1.0165977783203124
211,-0.0074083969465655874,0.008767175572518715,0.01001908396946477,-0.00907446289062503,0.00033996582031248224,0.9975548095703124
212,-0.0074083969465655874,-0.006500000000000367,-0.005248091603054311,-0.0010178222656250305,-0.00039245605468751776,1.0153770751953124
213,-0.0074083969465655874,0.0011335877862591603,-0.012881679389313866,0.0031325683593749695,0.0005841064453124822,0.9943809814453124
214,-0.015041984732825142,-0.014133587786259921,-0.005248091603054311,-0.0010178222656250305,-0.005031127929687518,1.0024376220703124
215,-0.015041984732825142,0.016400763358778242,0.01001908396946477,-0.0046799316406250305,-0.005031127929687518,1.0114708251953124
216,0.007858778625953466,-0.014133587786259921,0.0023854961832052157,-0.0039475097656250305,-0.015040893554687518,1.0029259033203124
217,-0.0074083969465655874,-0.014133587786259921,0.0023854961832052157,-0.0017502441406250305,-0.00039245605468751776,0.9951134033203124
218,0.015492366412213021,0.0011335877862591603,0.017652671755724297,-0.0007736816406250305,-0.00039245605468751776,0.9985313720703124
219,0.015492366412213021,0.008767175572518715,-0.005248091603054311,-0.0015061035156250305,-0.0006365966796875178,1.0039024658203124
220,0.00022519083969391174,0.008767175572518715,-0.005248091603054311,-0.00834204101562503,-0.0008807373046875178,1.0021934814453124
221,-0.0074083969465655874,-0.006500000000000367,0.0023854961832052157,0.0021560058593749695,0.014500122070312482,0.9992637939453124
222,0.00022519083969391174,0.0011335877862591603,-0.005248091603054311,-0.0012619628906250305,0.0032696533203124822,0.9948692626953124
223,-0.0074083969465655874,-0.006500000000000367,0.01001908396946477,-0.0015061035156250305,0.0037579345703124822,0.9985313720703124
224,0.007858778625953466,0.008767175572518715,-0.005248091603054311,0.0036208496093749695,-0.0018572998046875178,0.9953575439453124
225,0.03075954198473213,0.016400763358778242,0.0023854961832052157,-0.0007736816406250305,0.0032696533203124822,1.0087852783203124
226,-0.0074083969465655874,-0.029400763358779003,0.0023854961832052157,-0.0017502441406250305,-0.0021014404296875178,0.9897423095703124
227,0.007858778625953466,0.016400763358778242,-0.020515267175573393,0.01875756835937497,-0.00014831542968751776,1.0063438720703124
228,0.007858778625953466,0.0011335877862591603,0.0023854961832052157,-0.0044357910156250305,-0.004054565429687518,1.0024376220703124
229,0.00022519083969391174,-0.006500000000000367,-0.020515267175573393,-0.0015061035156250305,-0.011378784179687518,0.9999962158203124
230,0.00022519083969391174,0.0011335877862591603,0.01001908396946477,0.0009353027343749695,0.0037579345703124822,1.0131798095703124
231,0.00022519083969391174,0.008767175572518715,-0.005248091603054311,-0.0012619628906250305,-0.0028338623046875178,0.9973106689453124
232,0.007858778625953466,-0.006500000000000367,-0.020515267175573393,0.0058181152343749695,-0.0018572998046875178,0.9982872314453124
233,0.015492366412213021,0.0011335877862591603,-0.005248091603054311,-0.0022385253906250305,-0.014064331054687518,1.0026817626953124
234,0.00022519083969391174,-0.014133587786259921,-0.012881679389313866,0.0036208496093749695,-0.0038104248046875178,1.0002403564453124
235,0.007858778625953466,0.016400763358778242,-0.005248091603054311,0.0072829589843749695,-0.014552612304687518,0.9968223876953124
236,0.015492366412213021,-0.014133587786259921,-0.012881679389313866,-0.0044357910156250305,0.0025372314453124822,1.0021934814453124
237,-0.015041984732825142,-0.014133587786259921,-0.020515267175573393,-0.0037033691406250305,0.004978637695312482,1.0031700439453124
238,0.00022519083969391174,-0.014133587786259921,0.017652671755724297,0.01656030273437497,-0.00039245605468751776,0.9941368408203124
239,0.00022519083969391174,0.0011335877862591603,-0.012881679389313866,-0.0022385253906250305,9.582519531248224e-05,0.9999962158203124
240,0.007858778625953466,0.0011335877862591603,0.0023854961832052157,0.0019118652343749695,-0.014796752929687518,0.9992637939453124
241,0.007858778625953466,-0.014133587786259921,-0.012881679389313866,0.0016677246093749695,9.582519531248224e-05,1.0180626220703124
242,0.007858778625953466,-0.029400763358779003,0.01001908396946477,0.0014235839843749695,0.0005841064453124822,0.9999962158203124
243,0.00022519083969391174,0.008767175572518715,0.01001908396946477,-0.0019943847656250305,-0.0023455810546875178,1.0002403564453124
244,0.00022519083969391174,0.008767175572518715,0.017652671755724297,-0.0005295410156250305,0.0010723876953124822,0.9970665283203124
245,0.015492366412213021,0.0011335877862591603,0.0023854961832052157,-0.0039475097656250305,-0.0016131591796875178,0.9963341064453124
246,0.007858778625953466,0.016400763358778242,0.01001908396946477,-0.0056564941406250305,9.582519531248224e-05,0.9943809814453124
247,0.007858778625953466,-0.006500000000000367,0.01001908396946477,-0.01102758789062503,0.0008282470703124822,0.9973106689453124
248,-0.0074083969465655874,0.0011335877862591603,0.01001908396946477,0.00020288085937496952,-0.013820190429687518,0.9909630126953124
249,0.007858778625953466,0.0011335877862591603,-0.005248091603054311,0.0021560058593749695,0.013767700195312482,0.9885216064453124
250,-0.015041984732825142,0.016400763358778242,0.0023854961832052157,0.0036208496093749695,0.0037579345703124822,1.0063438720703124
251,0.00022519083969391174,0.0011335877862591603,-0.005248091603054311,-0.0002854003906250305,0.0010723876953124822,1.0026817626953124
252,0.00022519083969391174,-0.006500000000000367,0.0023854961832052157,-0.0046799316406250305,0.004978637695312482,0.9934044189453124
253,0.007858778625953466,0.008767175572518715,0.01001908396946477,-0.0019943847656250305,-0.004298706054687518,0.9975548095703124
254,0.00022519083969391174,-0.014133587786259921,-0.005248091603054311,-0.0044357910156250305,0.004002075195312482,0.9990196533203124
255,-0.0074083969465655874,0.0011335877862591603,0.025286259541983824,-0.0015061035156250305,0.0032696533203124822,1.0034141845703124
256,-0.015041984732825142,0.0011335877862591603,-0.020515267175573393,0.0014235839843749695,0.0027813720703124822,0.9948692626953124
257,-0.0074083969465655874,0.0011335877862591603,-0.005248091603054311,-0.0061447753906250305,0.013035278320312482,0.9916954345703124
258,0.00022519083969391174,0.008767175572518715,-0.012881679389313866,0.0016677246093749695,0.0030255126953124822,1.0170860595703124
259,-0.0074083969465655874,-0.021767175572519476,0.025286259541983824,0.0021560058593749695,0.0013165283203124822,1.0012169189453124
260,-0.0074083969465655874,0.0011335877862591603,0.01001908396946477,-0.0024826660156250305,-0.004542846679687518,1.0187950439453124
261,0.00022519083969391174,0.0011335877862591603,0.0023854961832052157,0.01582788085937497,0.009129028320312482,0.9997520751953124
262,-0.015041984732825142,-0.006500000000000367,-0.020515267175573393,-0.0007736816406250305,0.015232543945312482,1.0007286376953124
263,0.015492366412213021,-0.006500000000000367,-0.012881679389313866,-0.0034592285156250305,-0.009425659179687518,0.9943809814453124
264,0.023125954198472576,0.0011335877862591603,-0.020515267175573393,-0.0022385253906250305,-0.0035662841796875178,0.9995079345703124
265,0.00022519083969391174,-0.006500000000000367,0.025286259541983824,-0.0063889160156250305,0.00033996582031248224,0.9887657470703124
266,0.015492366412213021,0.0011335877862591603,0.0023854961832052157,-0.0002854003906250305,0.010349731445312482,0.9968223876953124
267,-0.015041984732825142,-0.014133587786259921,0.01001908396946477,0.0058181152343749695,-0.015285034179687518,1.0031700439453124
268,-0.0074083969465655874,-0.006500000000000367,0.0023854961832052157,-0.0005295410156250305,0.0027813720703124822,1.0029259033203124
269,0.00022519083969391174,-0.006500000000000367,0.0023854961832052157,-0.0041916503906250305,0.004246215820312482,0.9912071533203124
270,0.015492366412213021,0.008767175572518715,-0.005248091603054311,-0.0046799316406250305,0.009617309570312482,1.0034141845703124
271,-0.0074083969465655874,-0.006500000000000367,0.017652671755724297,0.0004470214843749695,0.005466918945312482,0.9982872314453124
272,0.015492366412213021,0.016400763358778242,0.0023854961832052157,-0.0017502441406250305,0.011814575195312482,0.9936485595703124
273,-0.0074083969465655874,0.008767175572518715,0.0023854961832052157,0.0011794433593749695,0.004490356445312482,1.0073204345703124
274,0.015492366412213021,-0.006500000000000367,-0.012881679389313866,0.0019118652343749695,-0.0038104248046875178,1.0036583251953124
275,0.00022519083969391174,0.0011335877862591603,0.01001908396946477,-0.0015061035156250305,-0.0011248779296875178,0.9995079345703124
276,-0.0074083969465655874,-0.03703435114503856,0.0023854961832052157,-0.0037033691406250305,-0.0021014404296875178,1.0144005126953124
277,-0.0074083969465655874,-0.006500000000000367,0.01001908396946477,0.0031325683593749695,-0.014308471679687518,1.0036583251953124
278,0.00022519083969391174,0.008767175572518715,0.0023854961832052157,-0.0019943847656250305,0.0010723876953124822,0.9987755126953124
279,0.03839312977099163,-0.014133587786259921,0.0023854961832052157,0.0021560058593749695,-0.004298706054687518,0.9965782470703124
280,0.007858778625953466,-0.006500000000000367,0.01001908396946477,0.0016677246093749695,0.015476684570312482,0.9968223876953124
281,0.007858778625953466,-0.014133587786259921,-0.005248091603054311,0.0033767089843749695,0.0018048095703124822,0.9987755126953124
282,-0.015041984732825142,-0.006500000000000367,0.017652671755724297,-0.0066330566406250305,0.00033996582031248224,1.0090294189453124
283,0.00022519083969391174,-0.021767175572519476,0.01001908396946477,-0.0012619628906250305,-0.0008807373046875178,1.0014610595703124
284,-0.0074083969465655874,0.024034351145037797,0.0023854961832052157,-0.0044357910156250305,-0.00039245605468751776,0.9941368408203124
285,-0.015041984732825142,0.0011335877862591603,0.0023854961832052157,-0.0017502441406250305,0.012791137695312482,1.0017052001953124
286,0.00022519083969391174,0.008767175572518715,0.0023854961832052157,-0.0024826660156250305,0.0020489501953124822,1.0180626220703124
287,-0.022675572519084697,-0.021767175572519476,0.0023854961832052157,0.0021560058593749695,0.0020489501953124822,1.0026817626953124
288,0.007858778625953466,0.0011335877862591603,0.01001908396946477,0.0016677246093749695,0.004002075195312482,1.0060997314453124
289,0.015492366412213021,0.016400763358778242,0.0023854961832052157,0.0038649902343749695,0.0030255126953124822,0.9929161376953124
290,0.015492366412213021,-0.006500000000000367,-0.005248091603054311,-0.0002854003906250305,-0.00014831542968751776,1.0019493408203124
291,-0.0074083969465655874,-0.006500000000000367,-0.005248091603054311,-0.0005295410156250305,0.0032696533203124822,0.9960899658203124
292,-0.0074083969465655874,0.008767175572518715,-0.012881679389313866,0.0053298339843749695,0.015232543945312482,1.0122032470703124
293,0.015492366412213021,0.0011335877862591603,0.01001908396946477,-0.00980688476562503,0.0008282470703124822,1.0141563720703124
294,0.00022519083969391174,0.008767175572518715,-0.005248091603054311,-0.0037033691406250305,0.012791137695312482,0.9997520751953124
295,0.015492366412213021,0.008767175572518715,-0.005248091603054311,0.0026442871093749695,0.015232543945312482,1.0185509033203124
296,-0.0074083969465655874,-0.006500000000000367,0.01001908396946477,-0.0054123535156250305,-0.0035662841796875178,0.9960899658203124
297,-0.0074083969465655874,0.016400763358778242,0.0023854961832052157,-0.01053930664062503,-0.0011248779296875178,1.0021934814453124
298,0.015492366412213021,0.0011335877862591603,0.017652671755724297,-0.0012619628906250305,0.0027813720703124822,0.9914512939453124
299,-0.022675572519084697,0.008767175572518715,0.017652671755724297,0.0036208496093749695,0.014988403320312482,0.9995079345703124
300,0.007858778625953466,-0.014133587786259921,0.0023854961832052157,0.0006911621093749695,0.0020489501953124822,0.9948692626953124
301,0.023125954198472576,0.016400763358778242,0.017652671755724297,-0.0027268066406250305,-0.004298706054687518,1.0017052001953124
302,-0.0074083969465655874,-0.014133587786259921,0.0023854961832052157,-0.01151586914062503,-0.014308471679687518,0.9977989501953124
303,0.015492366412213021,0.0011335877862591603,-0.005248091603054311,-0.0002854003906250305,-0.004542846679687518,0.9926719970703124
304,0.015492366412213021,0.0011335877862591603,-0.005248091603054311,-0.0027268066406250305,0.014988403320312482,1.0024376220703124
305,0.015492366412213021,0.016400763358778242,0.01001908396946477,0.0011794433593749695,0.0015606689453124822,0.9997520751953124
306,-0.015041984732825142,0.0011335877862591603,0.0023854961832052157,0.0019118652343749695,-0.00039245605468751776,0.9975548095703124
307,0.00022519083969391174,-0.006500000000000367,-0.020515267175573393,-0.0032150878906250305,0.0020489501953124822,1.0161094970703124
308,-0.022675572519084697,0.0011335877862591603,-0.005248091603054311,-0.0034592285156250305,-0.005519409179687518,1.0009727783203124
309,-0.0074083969465655874,0.016400763358778242,-0.005248091603054311,0.0036208496093749695,-0.0033221435546875178,0.9936485595703124
310,0.00022519083969391174,-0.021767175572519476,-0.005248091603054311,0.0036208496093749695,-0.0025897216796875178,0.9946251220703124
311,-0.0074083969465655874,0.008767175572518715,-0.012881679389313866,-0.01029516601562503,-0.0021014404296875178,1.0014610595703124
312,-0.03030916030534425,-0.006500000000000367,0.0023854961832052157,-0.0044357910156250305,0.004002075195312482,0.9892540283203124
313,0.00022519083969391174,0.016400763358778242,0.025286259541983824,0.01240991210937497,-0.0011248779296875178,1.0141563720703124
314,-0.0074083969465655874,0.008767175572518715,-0.012881679389313866,0.0038649902343749695,0.005711059570312482,0.9963341064453124
315,0.00022519083969391174,-0.006500000000000367,-0.005248091603054311,0.0016677246093749695,-0.0013690185546875178,0.9987755126953124
316,0.015492366412213021,0.0011335877862591603,0.0023854961832052157,0.0053298339843749695,0.015476684570312482,1.0034141845703124
317,0.007858778625953466,0.0011335877862591603,-0.012881679389313866,0.0004470214843749695,-0.004054565429687518,1.0007286376953124
318,-0.015041984732825142,-0.006500000000000367,-0.012881679389313866,-0.0056564941406250305,-0.0023455810546875178,1.0012169189453124
319,0.00022519083969391174,0.008767175572518715,0.01001908396946477,-0.0017502441406250305,0.0005841064453124822,0.9963341064453124
320,-0.0074083969465655874,0.016400763358778242,0.01001908396946477,-0.0005295410156250305,-0.0011248779296875178,0.9970665283203124
321,0.007858778625953466,0.016400763358778242,0.0023854961832052157,-4.1259765625030476e-05,-0.014552612304687518,0.9951134033203124
322,0.015492366412213021,-0.006500000000000367,0.01001908396946477,0.0014235839843749695,-0.0008807373046875178,0.9968223876953124
323,0.007858778625953466,-0.006500000000000367,-0.012881679389313866,-0.0010178222656250305,-0.0016131591796875178,0.9997520751953124
324,0.015492366412213021,0.0011335877862591603,-0.012881679389313866,-0.0034592285156250305,0.013523559570312482,1.0048790283203124
325,-0.0074083969465655874,0.0011335877862591603,0.017652671755724297,-0.0012619628906250305,0.004246215820312482,0.9990196533203124
326,0.007858778625953466,-0.014133587786259921,0.0023854961832052157,0.0009353027343749695,-0.0028338623046875178,0.9985313720703124
327,-0.015041984732825142,0.008767175572518715,-0.005248091603054311,0.00020288085937496952,-0.015285034179687518,1.0139122314453124
328,-0.015041984732825142,-0.006500000000000367,0.025286259541983824,0.0043532714843749695,-0.0011248779296875178,0.9892540283203124
329,-0.0074083969465655874,0.016400763358778242,0.0023854961832052157,-0.0012619628906250305,-0.0008807373046875178,1.0122032470703124
330,-0.0074083969465655874,0.008767175572518715,-0.012881679389313866,0.0026442871093749695,-0.005519409179687518,1.0019493408203124
331,0.007858778625953466,-0.006500000000000367,0.01001908396946477,-0.0002854003906250305,-0.004054565429687518,0.9970665283203124
332,0.007858778625953466,-0.006500000000000367,0.017652671755724297,0.0009353027343749695,0.013523559570312482,0.9985313720703124
333,0.007858778625953466,0.008767175572518715,0.0023854961832052157,-0.0027268066406250305,0.013035278320312482,1.0019493408203124
334,0.007858778625953466,-0.014133587786259921,-0.005248091603054311,-0.01151586914062503,-0.0011248779296875178,1.0017052001953124
335,-0.022675572519084697,-0.014133587786259921,0.025286259541983824,-0.0022385253906250305,0.0037579345703124822,1.0034141845703124
336,0.00022519083969391174,0.016400763358778242,-0.005248091603054311,-0.0007736816406250305,-0.004786987304687518,0.9953575439453124
337,0.00022519083969391174,-0.006500000000000367,0.017652671755724297,-0.0017502441406250305,0.010105590820312482,1.0021934814453124
338,0.015492366412213021,0.0011335877862591603,0.0023854961832052157,-0.0015061035156250305,0.0030255126953124822,0.9968223876953124
339,0.015492366412213021,0.008767175572518715,0.0023854961832052157,-0.0007736816406250305,0.0025372314453124822,1.0151329345703124
340,0.007858778625953466,-0.006500000000000367,0.01001908396946477,-0.0007736816406250305,-0.0028338623046875178,0.9960899658203124
341,0.007858778625953466,-0.006500000000000367,0.0023854961832052157,-0.0002854003906250305,0.014988403320312482,1.0185509033203124
342,0.00022519083969391174,-0.006500000000000367,-0.012881679389313866,-0.0032150878906250305,0.014255981445312482,0.9968223876953124
343,0.015492366412213021,0.008767175572518715,-0.012881679389313866,0.0004470214843749695,-0.011867065429687518,0.9960899658203124
344,0.007858778625953466,-0.006500000000000367,-0.005248091603054311,0.0024001464843749695,-0.005031127929687518,0.9899864501953124
345,0.00022519083969391174,0.0011335877862591603,0.01001908396946477,0.01436303710937497,0.00033996582031248224,1.0019493408203124
346,0.00022519083969391174,0.0011335877862591603,0.0023854961832052157,-0.0017502441406250305,-0.0013690185546875178,1.0017052001953124
347,-0.015041984732825142,0.016400763358778242,0.01001908396946477,-0.0019943847656250305,0.013767700195312482,1.0058555908203124
348,-0.0074083969465655874,0.0011335877862591603,0.0023854961832052157,-0.0032150878906250305,-0.00039245605468751776,0.9968223876953124
349,0.00022519083969391174,0.0011335877862591603,0.017652671755724297,-0.0017502441406250305,0.014500122070312482,1.0070762939453124
350,0.00022519083969391174,-0.014133587786259921,0.0023854961832052157,-0.0005295410156250305,-0.005275268554687518,0.9941368408203124
351,-0.0074083969465655874,0.016400763358778242,0.01001908396946477,-0.0002854003906250305,-0.0018572998046875178,0.9980430908203124
352,0.00022519083969391174,0.008767175572518715,0.01001908396946477,-0.0066330566406250305,-0.0023455810546875178,1.0009727783203124
353,0.007858778625953466,-0.006500000000000367,0.0023854961832052157,0.0006911621093749695,0.008884887695312482,1.0004844970703124
354,0.00022519083969391174,0.0011335877862591603,-0.005248091603054311,0.0014235839843749695,0.0032696533203124822,1.0012169189453124
355,-0.015041984732825142,-0.014133587786259921,0.0023854961832052157,0.0028884277343749695,0.0035137939453124822,1.0114708251953124
356,0.007858778625953466,-0.021767175572519476,-0.005248091603054311,0.0006911621093749695,0.004002075195312482,0.9982872314453124
357,0.007858778625953466,0.016400763358778242,0.01001908396946477,0.0004470214843749695,0.0037579345703124822,0.9997520751953124
358,0.00022519083969391174,0.016400763358778242,-0.005248091603054311,-0.0007736816406250305,0.0022930908203124822,0.9904747314453124
359,0.015492366412213021,0.008767175572518715,-0.012881679389313866,-0.0024826660156250305,0.0025372314453124822,0.9982872314453124
360,0.00022519083969391174,-0.006500000000000367,-0.012881679389313866,-0.0034592285156250305,0.005222778320312482,1.0012169189453124
361,-0.0074083969465655874,-0.014133587786259921,-0.005248091603054311,0.0038649902343749695,-0.006495971679687518,0.9946251220703124
362,0.00022519083969391174,-0.021767175572519476,-0.005248091603054311,-0.0019943847656250305,0.004002075195312482,1.0009727783203124
363,-0.0074083969465655874,0.016400763358778242,0.01001908396946477,0.01753686523437497,0.008152465820312482,1.0046348876953124
364,0.007858778625953466,0.024034351145037797,-0.012881679389313866,-0.0007736816406250305,-0.0006365966796875178,0.9973106689453124
365,0.007858778625953466,-0.014133587786259921,0.0023854961832052157,0.00020288085937496952,-0.0008807373046875178,0.9892540283203124
366,0.00022519083969391174,-0.006500000000000367,0.0023854961832052157,-0.0017502441406250305,0.0020489501953124822,0.9941368408203124
367,0.00022519083969391174,-0.021767175572519476,-0.005248091603054311,-0.01053930664062503,0.0015606689453124822,1.0014610595703124
368,0.007858778625953466,-0.006500000000000367,0.0023854961832052157,0.0041091308593749695,-0.0016131591796875178,1.0048790283203124
369,-0.0074083969465655874,0.0011335877862591603,0.01001908396946477,0.0004470214843749695,0.013035278320312482,0.9953575439453124
370,0.00022519083969391174,0.0011335877862591603,-0.005248091603054311,0.00020288085937496952,0.004734497070312482,0.9924278564453124
371,0.015492366412213021,0.0011335877862591603,0.0023854961832052157,-0.0034592285156250305,0.010838012695312482,1.0124473876953124
372,0.00022519083969391174,0.008767175572518715,0.0023854961832052157,0.0009353027343749695,0.005955200195312482,0.9943809814453124
373,0.015492366412213021,0.008767175572518715,0.0023854961832052157,0.01411889648437497,-0.0011248779296875178,0.9997520751953124
374,0.007858778625953466,0.0011335877862591603,0.017652671755724297,0.00923608398437497,0.015476684570312482,0.9931602783203124
375,0.00022519083969391174,-0.029400763358779003,0.0023854961832052157,-0.0049240722656250305,0.0010723876953124822,0.9934044189453124
376,0.015492366412213021,-0.014133587786259921,0.01001908396946477,-0.0002854003906250305,-0.013820190429687518,0.9980430908203124
377,0.00022519083969391174,-0.006500000000000367,0.0023854961832052157,-0.0007736816406250305,0.014988403320312482,0.9951134033203124
378,0.015492366412213021,-0.021767175572519476,-0.005248091603054311,-0.0002854003906250305,-0.014796752929687518,1.0017052001953124
379,-0.0074083969465655874,0.008767175572518715,0.0023854961832052157,-0.0022385253906250305,-0.0008807373046875178,1.0063438720703124
380,0.007858778625953466,-0.006500000000000367,0.017652671755724297,-0.0027268066406250305,0.014011840820312482,1.0007286376953124
381,0.00022519083969391174,0.008767175572518715,0.0023854961832052157,0.0036208496093749695,0.013279418945312482,0.9902305908203124
382,0.007858778625953466,0.016400763358778242,0.017652671755724297,-0.0037033691406250305,-0.0025897216796875178,1.0019493408203124
383,-0.0074083969465655874,0.031667938931297324,-0.005248091603054311,-0.0044357910156250305,-0.006251831054687518,1.0039024658203124
384,-0.0074083969465655874,0.008767175572518715,0.0023854961832052157,-0.0039475097656250305,0.0005841064453124822,0.9956016845703124
385,-0.0074083969465655874,-0.006500000000000367,0.017652671755724297,-0.0037033691406250305,0.012546997070312482,0.9990196533203124
386,-0.0074083969465655874,0.0011335877862591603,0.01001908396946477,-0.01151586914062503,9.582519531248224e-05,0.9997520751953124
387,0.015492366412213021,0.008767175572518715,0.0023854961832052157,0.0014235839843749695,0.015476684570312482,0.9992637939453124
388,-0.015041984732825142,0.016400763358778242,0.01001908396946477,-0.0024826660156250305,-0.011134643554687518,0.9890098876953124
389,0.007858778625953466,0.0011335877862591603,-0.005248091603054311,-0.0019943847656250305,-0.0028338623046875178,1.0002403564453124
390,0.007858778625953466,0.008767175572518715,-0.012881679389313866,0.0019118652343749695,0.0020489501953124822,0.9963341064453124
391,-0.022675572519084697,0.0011335877862591603,0.025286259541983824,0.0016677246093749695,-0.015529174804687518,0.9985313720703124
392,0.007858778625953466,-0.006500000000000367,0.01001908396946477,-0.0041916503906250305,-0.0023455810546875178,1.0134239501953124
393,0.023125954198472576,0.0011335877862591603,0.0023854961832052157,0.01704858398437497,9.582519531248224e-05,1.0107384033203124
394,-0.0074083969465655874,0.0011335877862591603,-0.005248091603054311,0.0014235839843749695,-0.004298706054687518,0.9985313720703124
395,0.015492366412213021,0.016400763358778242,0.025286259541983824,-0.0029709472656250305,0.00033996582031248224,0.9894981689453124
396,0.007858778625953466,-0.014133587786259921,-0.005248091603054311,-0.01005102539062503,-0.0018572998046875178,0.9990196533203124
397,0.007858778625953466,0.024034351145037797,0.017652671755724297,-0.0007736816406250305,0.014744262695312482,1.0058555908203124
398,0.007858778625953466,0.016400763358778242,0.0023854961832052157,-0.0017502441406250305,0.015476684570312482,0.9982872314453124
399,0.00022519083969391174,0.031667938931297324,-0.005248091603054311,-0.0056564941406250305,0.0010723876953124822,0.9968223876953124
400,0.00022519083969391174,0.008767175572518715,0.01001908396946477,0.0063063964843749695,0.011326293945312482,1.0051231689453124
401,-0.015041984732825142,0.008767175572518715,0.0023854961832052157,-0.0027268066406250305,0.015232543945312482,0.9992637939453124
402,0.015492366412213021,-0.006500000000000367,0.0023854961832052157,-0.0017502441406250305,-0.0006365966796875178,0.9956016845703124
403,-0.015041984732825142,0.008767175572518715,0.017652671755724297,0.0014235839843749695,-0.005031127929687518,1.0014610595703124
404,0.00022519083969391174,0.0011335877862591603,0.0023854961832052157,0.0014235839843749695,-0.0035662841796875178,1.0065880126953124
405,-0.0074083969465655874,0.0011335877862591603,-0.005248091603054311,-0.0019943847656250305,-0.0038104248046875178,0.9977989501953124
406,-0.015041984732825142,0.008767175572518715,-0.012881679389313866,0.01289819335937497,-0.0008807373046875178,1.0012169189453124
407,0.015492366412213021,-0.006500000000000367,0.01001908396946477,-0.0017502441406250305,0.0037579345703124822,1.0012169189453124
408,0.007858778625953466,0.0011335877862591603,0.0023854961832052157,0.0038649902343749695,0.0037579345703124822,0.9934044189453124
409,0.023125954198472576,-0.021767175572519476,0.01001908396946477,0.01582788085937497,-0.0008807373046875178,0.9894981689453124
410,0.007858778625953466,-0.006500000000000367,-0.012881679389313866,0.0009353027343749695,-0.014308471679687518,1.0017052001953124
411,0.015492366412213021,-0.014133587786259921,0.0023854961832052157,-0.0015061035156250305,0.0032696533203124822,0.9965782470703124
412,0.00022519083969391174,0.008767175572518715,0.0023854961832052157,-0.0022385253906250305,0.0008282470703124822,1.0007286376953124
413,-0.0074083969465655874,0.024034351145037797,0.0023854961832052157,-0.0017502441406250305,0.013767700195312482,0.9956016845703124
414,-0.0074083969465655874,0.008767175572518715,0.0023854961832052157,-0.0027268066406250305,0.012058715820312482,0.9890098876953124
415,-0.0074083969465655874,0.0011335877862591603,-0.005248091603054311,-0.0017502441406250305,0.00033996582031248224,1.0034141845703124
416,0.007858778625953466,0.008767175572518715,0.0023854961832052157,-0.0015061035156250305,-0.013331909179687518,0.9968223876953124
417,0.007858778625953466,0.0011335877862591603,-0.012881679389313866,0.0024001464843749695,0.00033996582031248224,0.9894981689453124
418,0.00022519083969391174,-0.006500000000000367,0.0023854961832052157,-0.0032150878906250305,-0.0006365966796875178,0.9990196533203124
419,0.015492366412213021,-0.006500000000000367,0.0023854961832052157,0.00923608398437497,0.013767700195312482,0.9995079345703124
420,0.007858778625953466,0.016400763358778242,0.0023854961832052157,-0.0029709472656250305,0.015232543945312482,1.0080528564453124
421,0.007858778625953466,-0.006500000000000367,0.01001908396946477,-0.00931860351562503,-0.0008807373046875178,1.0004844970703124
422,0.015492366412213021,-0.014133587786259921,0.0023854961832052157,-0.0027268066406250305,0.015232543945312482,1.0104942626953124
423,0.007858778625953466,0.016400763358778242,-0.005248091603054311,0.0036208496093749695,-0.00014831542968751776,1.0019493408203124
424,0.00022519083969391174,-0.014133587786259921,0.0023854961832052157,0.0043532714843749695,-0.014796752929687518,0.9995079345703124
425,0.015492366412213021,0.008767175572518715,0.01001908396946477,0.0055739746093749695,-0.0035662841796875178,1.0048790283203124
426,-0.03030916030534425,0.024034351145037797,0.0023854961832052157,0.0038649902343749695,0.0037579345703124822,1.0153770751953124
427,-0.0074083969465655874,0.008767175572518715,0.01001908396946477,0.0024001464843749695,0.00033996582031248224,0.9992637939453124
428,0.00022519083969391174,0.008767175572518715,-0.012881679389313866,0.0024001464843749695,-0.011622924804687518,1.0007286376953124
429,-0.0074083969465655874,0.024034351145037797,0.01001908396946477,-0.0032150878906250305,-0.00039245605468751776,0.9999962158203124
430,0.00022519083969391174,0.0011335877862591603,-0.005248091603054311,-0.0041916503906250305,-0.009425659179687518,1.0058555908203124
431,0.007858778625953466,0.008767175572518715,0.0023854961832052157,0.0016677246093749695,0.012302856445312482,0.9943809814453124
432,0.00022519083969391174,0.008767175572518715,0.01001908396946477,-0.0039475097656250305,0.0008282470703124822,0.9973106689453124
433,0.015492366412213021,0.0011335877862591603,-0.005248091603054311,-0.0054123535156250305,-0.015285034179687518,1.0017052001953124
434,0.00022519083969391174,0.008767175572518715,-0.012881679389313866,0.0019118652343749695,-0.0033221435546875178,0.9992637939453124
435,0.015492366412213021,0.0011335877862591603,-0.020515267175573393,0.0004470214843749695,0.006687622070312482,0.9887657470703124
436,0.00022519083969391174,-0.006500000000000367,0.01001908396946477,0.0024001464843749695,-0.004786987304687518,1.0014610595703124
437,0.00022519083969391174,0.016400763358778242,0.0023854961832052157,-0.0049240722656250305,0.0015606689453124822,0.9997520751953124
438,0.007858778625953466,0.016400763358778242,0.0023854961832052157,-0.0049240722656250305,0.0018048095703124822,0.9985313720703124
439,0.00022519083969391174,0.0011335877862591603,0.01001908396946477,0.01875756835937497,-0.004298706054687518,1.0017052001953124
440,-0.0074083969465655874,-0.006500000000000367,0.0023854961832052157,-0.0046799316406250305,-0.009669799804687518,1.0021934814453124
441,0.015492366412213021,0.0011335877862591603,0.01001908396946477,-0.01151586914062503,9.582519531248224e-05,1.0163536376953124
442,0.007858778625953466,0.008767175572518715,0.01001908396946477,0.0006911621093749695,0.014011840820312482,1.0004844970703124
443,-0.0074083969465655874,-0.021767175572519476,0.017652671755724297,-0.0017502441406250305,0.014744262695312482,0.9958458251953124
444,0.007858778625953466,0.016400763358778242,0.0023854961832052157,0.01924584960937497,-0.0030780029296875178,0.9968223876953124
445,0.00022519083969391174,0.008767175572518715,0.0023854961832052157,0.0050856933593749695,-0.012355346679687518,1.0026817626953124
446,0.00022519083969391174,0.016400763358778242,-0.005248091603054311,0.0006911621093749695,0.0015606689453124822,1.0056114501953124
447,0.00022519083969391174,-0.021767175572519476,-0.012881679389313866,-0.0059006347656250305,-0.011622924804687518,1.0021934814453124
448,0.00022519083969391174,0.0011335877862591603,0.01001908396946477,0.0014235839843749695,-0.012355346679687518,0.9885216064453124
449,0.00022519083969391174,-0.006500000000000367,0.01001908396946477,-0.0015061035156250305,-0.0023455810546875178,0.9899864501953124
450,0.015492366412213021,-0.006500000000000367,0.0023854961832052157,0.01094506835937497,-0.0018572998046875178,0.9926719970703124
451,0.023125954198472576,0.0011335877862591603,-0.005248091603054311,-0.0039475097656250305,0.0010723876953124822,0.9875450439453124
452,0.007858778625953466,0.0011335877862591603,-0.020515267175573393,0.0028884277343749695,-0.013331909179687518,1.0004844970703124
453,0.007858778625953466,0.0011335877862591603,-0.012881679389313866,-0.01127172851562503,0.0030255126953124822,0.9916954345703124
454,-0.0074083969465655874,0.0011335877862591603,-0.005248091603054311,-0.0019943847656250305,-0.012355346679687518,0.9985313720703124
455,-0.015041984732825142,0.008767175572518715,-0.005248091603054311,-0.0022385253906250305,-0.0013690185546875178,1.0034141845703124
456,0.00022519083969391174,0.016400763358778242,-0.005248091603054311,0.0004470214843749695,-0.005031127929687518,0.9975548095703124
457,0.015492366412213021,-0.006500000000000367,-0.012881679389313866,0.0024001464843749695,0.005222778320312482,0.9973106689453124
458,-0.015041984732825142,-0.006500000000000367,-0.020515267175573393,-0.0012619628906250305,-0.005275268554687518,1.0126915283203124
459,0.00022519083969391174,0.008767175572518715,-0.005248091603054311,0.01826928710937497,-0.0018572998046875178,0.9990196533203124
460,-0.0074083969465655874,0.0011335877862591603,0.017652671755724297,0.0019118652343749695,0.011814575195312482,0.9987755126953124
461,0.007858778625953466,0.024034351145037797,-0.020515267175573393,0.0019118652343749695,0.0020489501953124822,1.0019493408203124
462,0.007858778625953466,-0.006500000000000367,-0.012881679389313866,-0.0032150878906250305,-0.006251831054687518,0.9919395751953124
463,-0.015041984732825142,0.0011335877862591603,0.01001908396946477,-0.0029709472656250305,-0.0008807373046875178,1.0014610595703124
464,0.007858778625953466,0.008767175572518715,0.017652671755724297,0.0019118652343749695,0.004734497070312482,0.9999962158203124
465,-0.0074083969465655874,0.0011335877862591603,0.01001908396946477,0.0004470214843749695,-0.0008807373046875178,0.9973106689453124
466,-0.0074083969465655874,0.0011335877862591603,0.017652671755724297,0.0019118652343749695,0.004978637695312482,0.9995079345703124
467,0.00022519083969391174,0.008767175572518715,-0.005248091603054311,0.0050856933593749695,-0.015529174804687518,1.0034141845703124
468,0.007858778625953466,0.008767175572518715,0.0023854961832052157,0.0021560058593749695,-0.005275268554687518,1.0046348876953124
469,-0.015041984732825142,-0.006500000000000367,-0.005248091603054311,-4.1259765625030476e-05,0.0010723876953124822,0.9965782470703124
470,-0.015041984732825142,-0.006500000000000367,0.0023854961832052157,0.0036208496093749695,0.006443481445312482,1.0024376220703124
471,0.015492366412213021,0.008767175572518715,0.0023854961832052157,0.0041091308593749695,0.0015606689453124822,1.0017052001953124
472,-0.0074083969465655874,-0.006500000000000367,0.01001908396946477,-0.0017502441406250305,-0.006007690429687518,1.0019493408203124
473,-0.0074083969465655874,0.0011335877862591603,-0.005248091603054311,0.0004470214843749695,0.00033996582031248224,1.0007286376953124
474,0.015492366412213021,0.0011335877862591603,-0.012881679389313866,0.0031325683593749695,-0.00014831542968751776,1.0002403564453124
475,0.007858778625953466,0.0011335877862591603,0.0023854961832052157,-0.0039475097656250305,0.00033996582031248224,1.0029259033203124
476,0.00022519083969391174,-0.006500000000000367,-0.005248091603054311,-0.0010178222656250305,-0.010890502929687518,1.0009727783203124
477,0.007858778625953466,0.0011335877862591603,0.017652671755724297,0.0038649902343749695,-0.014796752929687518,0.9941368408203124
478,0.007858778625953466,-0.006500000000000367,0.0023854961832052157,0.0011794433593749695,-0.0025897216796875178,1.0073204345703124
479,0.015492366412213021,0.0011335877862591603,0.01001908396946477,-0.0039475097656250305,-0.0016131591796875178,0.9968223876953124
480,0.00022519083969391174,-0.014133587786259921,-0.005248091603054311,-0.0022385253906250305,0.006931762695312482,0.9968223876953124
481,0.00022519083969391174,0.008767175572518715,-0.005248091603054311,-0.0017502441406250305,-0.015040893554687518,1.0039024658203124
482,0.007858778625953466,-0.006500000000000367,0.0023854961832052157,0.0045974121093749695,0.0010723876953124822,1.0021934814453124
483,0.00022519083969391174,-0.006500000000000367,0.0023854961832052157,-0.0010178222656250305,0.0005841064453124822,1.0021934814453124
484,0.007858778625953466,-0.006500000000000367,0.01001908396946477,-0.0012619628906250305,0.004978637695312482,1.0041466064453124
485,-0.0074083969465655874,0.008767175572518715,0.01001908396946477,-0.0068771972656250305,0.015232543945312482,1.0026817626953124
486,0.00022519083969391174,0.0011335877862591603,-0.005248091603054311,-4.1259765625030476e-05,0.0025372314453124822,1.0007286376953124
487,0.00022519083969391174,-0.006500000000000367,-0.020515267175573393,-0.0002854003906250305,-0.015529174804687518,0.9995079345703124
488,0.007858778625953466,-0.006500000000000367,0.0023854961832052157,-0.0022385253906250305,0.004734497070312482,0.9970665283203124
489,0.00022519083969391174,0.008767175572518715,-0.005248091603054311,0.0009353027343749695,0.00033996582031248224,0.9999962158203124
490,0.015492366412213021,0.0011335877862591603,0.01001908396946477,0.0050856933593749695,-0.014308471679687518,0.9963341064453124
491,-0.0074083969465655874,0.031667938931297324,-0.005248091603054311,-4.1259765625030476e-05,-0.011378784179687518,1.0053673095703124
492,-0.0074083969465655874,0.0011335877862591603,0.0023854961832052157,0.0031325683593749695,0.014011840820312482,0.9943809814453124
493,0.007858778625953466,-0.006500000000000367,-0.020515267175573393,0.01533959960937497,0.010349731445312482,1.0036583251953124
494,0.007858778625953466,0.016400763358778242,0.0023854961832052157,-0.0007736816406250305,-0.013820190429687518,1.0014610595703124
495,0.00022519083969391174,-0.006500000000000367,-0.005248091603054311,-0.0017502441406250305,0.0030255126953124822,1.0065880126953124
496,0.023125954198472576,0.008767175572518715,-0.005248091603054311,0.0028884277343749695,0.00033996582031248224,0.9960899658203124
497,0.00022519083969391174,-0.014133587786259921,0.0023854961832052157,-0.0027268066406250305,-0.0025897216796875178,0.9892540283203124
498,0.007858778625953466,0.024034351145037797,0.0023854961832052157,-0.0002854003906250305,-0.00039245605468751776,1.0173302001953124
499,0.007858778625953466,0.024034351145037797,0.0023854961832052157,-0.0024826660156250305,-0.0013690185546875178,1.0019493408203124
500,0.00022519083969391174,-0.006500000000000367,0.025286259541983824,0.0016677246093749695,0.012302856445312482,1.0039024658203124
501,0.00022519083969391174,0.0011335877862591603,0.0023854961832052157,0.0021560058593749695,0.0015606689453124822,0.9960899658203124
502,0.00022519083969391174,0.0011335877862591603,0.0023854961832052157,-0.0019943847656250305,0.0010723876953124822,0.9885216064453124
503,0.007858778625953466,0.0011335877862591603,0.0023854961832052157,-0.0029709472656250305,0.0010723876953124822,0.9953575439453124
504,0.00022519083969391174,-0.014133587786259921,-0.005248091603054311,-0.0005295410156250305,-0.004054565429687518,1.0014610595703124
505,-0.015041984732825142,-0.006500000000000367,0.0023854961832052157,0.01778100585937497,0.0030255126953124822,0.9995079345703124
506,0.00022519083969391174,0.0011335877862591603,-0.012881679389313866,-0.0032150878906250305,0.004734497070312482,1.0053673095703124
507,-0.015041984732825142,0.016400763358778242,0.0023854961832052157,0.0014235839843749695,0.00033996582031248224,1.0039024658203124
508,0.00022519083969391174,0.008767175572518715,0.025286259541983824,-0.0019943847656250305,-0.0030780029296875178,0.9970665283203124
509,0.007858778625953466,-0.014133587786259921,-0.020515267175573393,-0.0027268066406250305,0.012546997070312482,1.0002403564453124
510,-0.015041984732825142,0.0011335877862591603,-0.005248091603054311,-0.0012619628906250305,0.0022930908203124822,1.0046348876953124
511,0.007858778625953466,0.008767175572518715,-0.005248091603054311,-0.0054123535156250305,-0.010158081054687518,0.9977989501953124
512,0.015492366412213021,0.0011335877862591603,0.0023854961832052157,-0.0005295410156250305,-0.014308471679687518,0.9987755126953124
513,0.007858778625953466,-0.006500000000000367,-0.005248091603054311,-4.1259765625030476e-05,9.582519531248224e-05,0.9985313720703124
514,0.007858778625953466,0.008767175572518715,-0.005248091603054311,-4.1259765625030476e-05,0.00033996582031248224,0.9887657470703124
515,0.023125954198472576,0.0011335877862591603,0.0023854961832052157,0.0033767089843749695,-0.013820190429687518,0.9999962158203124
516,-0.015041984732825142,0.008767175572518715,0.01001908396946477,-0.00809790039062503,-0.0013690185546875178,0.9963341064453124
517,0.03075954198473213,0.0011335877862591603,-0.005248091603054311,-0.00785375976562503,0.0030255126953124822,1.0051231689453124
518,0.015492366412213021,0.008767175572518715,0.01001908396946477,0.0004470214843749695,0.0022930908203124822,1.0034141845703124
519,-0.015041984732825142,-0.014133587786259921,-0.012881679389313866,0.0031325683593749695,0.0018048095703124822,0.9985313720703124
520,-0.0074083969465655874,0.0011335877862591603,0.01001908396946477,-0.0056564941406250305,-0.013331909179687518,0.9982872314453124
521,-0.0074083969465655874,0.0011335877862591603,-0.012881679389313866,0.0006911621093749695,0.004978637695312482,1.0026817626953124
522,0.023125954198472576,0.008767175572518715,-0.005248091603054311,-0.0027268066406250305,-0.0016131591796875178,1.0183067626953124
523,0.007858778625953466,0.0011335877862591603,0.01001908396946477,-0.0010178222656250305,-0.0016131591796875178,1.0024376220703124
524,0.015492366412213021,0.0011335877862591603,-0.012881679389313866,-0.0032150878906250305,0.0005841064453124822,1.0144005126953124
525,0.00022519083969391174,-0.021767175572519476,0.0023854961832052157,0.0016677246093749695,0.0018048095703124822,1.0056114501953124
526,0.007858778625953466,0.008767175572518715,-0.005248091603054311,0.00020288085937496952,-0.0023455810546875178,1.0012169189453124
527,0.007858778625953466,0.008767175572518715,-0.020515267175573393,-0.0012619628906250305,0.0035137939453124822,1.0024376220703124
528,0.015492366412213021,-0.014133587786259921,0.017652671755724297,-0.0046799316406250305,0.0037579345703124822,1.0017052001953124
529,0.023125954198472576,-0.006500000000000367,0.025286259541983824,-0.0022385253906250305,-0.014552612304687518,1.0031700439453124
530,0.00022519083969391174,0.0011335877862591603,0.01001908396946477,-0.0017502441406250305,0.014744262695312482,1.0021934814453124
531,0.00022519083969391174,0.008767175572518715,0.0023854961832052157,-0.0019943847656250305,-0.0006365966796875178,1.0165977783203124
532,0.007858778625953466,-0.006500000000000367,0.0023854961832052157,0.0028884277343749695,0.0032696533203124822,1.0024376220703124
533,0.00022519083969391174,-0.014133587786259921,0.0023854961832052157,0.00020288085937496952,0.014255981445312482,0.9931602783203124
534,0.00022519083969391174,0.008767175572518715,-0.012881679389313866,0.0009353027343749695,-0.004298706054687518,1.0002403564453124
535,0.007858778625953466,-0.006500000000000367,0.0023854961832052157,-0.0002854003906250305,-0.004298706054687518,0.9977989501953124
536,0.00022519083969391174,0.0011335877862591603,-0.005248091603054311,-0.0034592285156250305,-0.013820190429687518,0.9941368408203124
537,0.00022519083969391174,-0.006500000000000367,0.01001908396946477,0.0028884277343749695,0.0005841064453124822,0.9992637939453124
538,-0.015041984732825142,0.016400763358778242,0.0023854961832052157,0.01729272460937497,0.014500122070312482,1.0048790283203124
539,0.007858778625953466,0.008767175572518715,0.0023854961832052157,0.0048415527343749695,0.014011840820312482,1.0007286376953124
540,0.00022519083969391174,0.0011335877862591603,0.0023854961832052157,-0.0068771972656250305,-0.005031127929687518,1.0024376220703124
541,-0.0074083969465655874,0.0011335877862591603,0.01001908396946477,0.0009353027343749695,0.0010723876953124822,0.9990196533203124
542,0.00022519083969391174,0.0011335877862591603,0.01001908396946477,-0.0017502441406250305,-0.0028338623046875178,1.0012169189453124
543,0.007858778625953466,0.031667938931297324,0.01001908396946477,-0.0019943847656250305,-0.0021014404296875178,0.9946251220703124
544,0.007858778625953466,0.024034351145037797,-0.012881679389313866,-0.0032150878906250305,-0.013576049804687518,0.9948692626953124
545,0.015492366412213021,-0.006500000000000367,0.0023854961832052157,-0.0068771972656250305,0.00033996582031248224,0.9977989501953124
546,-0.0074083969465655874,-0.006500000000000367,0.0023854961832052157,0.00020288085937496952,-0.011622924804687518,0.9960899658203124
547,0.023125954198472576,0.0011335877862591603,0.01001908396946477,-0.0017502441406250305,-0.00039245605468751776,1.0131798095703124
548,0.007858778625953466,0.0011335877862591603,0.01001908396946477,-0.0012619628906250305,0.004246215820312482,0.9997520751953124
549,-0.015041984732825142,-0.029400763358779003,0.017652671755724297,0.0021560058593749695,-0.0030780029296875178,0.9965782470703124
550,0.00022519083969391174,0.008767175572518715,-0.012881679389313866,-0.0010178222656250305,0.0032696533203124822,1.0141563720703124
551,0.00022519083969391174,0.008767175572518715,0.01001908396946477,-0.0027268066406250305,-0.004542846679687518,1.0002403564453124
552,0.007858778625953466,-0.014133587786259921,0.017652671755724297,-0.0037033691406250305,-0.0013690185546875178,0.9985313720703124
553,0.007858778625953466,0.0011335877862591603,0.025286259541983824,-0.0015061035156250305,-0.008693237304687518,1.0190391845703124
554,0.015492366412213021,-0.021767175572519476,0.01001908396946477,-0.0054123535156250305,-0.012599487304687518,0.9973106689453124
555,0.00022519083969391174,0.008767175572518715,-0.005248091603054311,0.0026442871093749695,-0.004786987304687518,0.9941368408203124
556,-0.015041984732825142,0.024034351145037797,0.0023854961832052157,-4.1259765625030476e-05,0.012791137695312482,1.0119591064453124
557,0.007858778625953466,0.008767175572518715,0.01001908396946477,0.0019118652343749695,0.0018048095703124822,0.9987755126953124
558,-0.015041984732825142,-0.014133587786259921,-0.005248091603054311,-0.0068771972656250305,-0.009669799804687518,1.0075645751953124
559,0.00022519083969391174,-0.014133587786259921,0.01001908396946477,-0.0032150878906250305,-0.011867065429687518,1.0051231689453124
560,-0.0074083969465655874,-0.014133587786259921,0.01001908396946477,0.00948022460937497,0.0025372314453124822,0.9970665283203124
561,-0.015041984732825142,0.008767175572518715,0.017652671755724297,0.0036208496093749695,0.0032696533203124822,1.0024376220703124
562,-0.0074083969465655874,0.008767175572518715,-0.012881679389313866,0.0016677246093749695,-0.004054565429687518,0.9958458251953124
563,0.007858778625953466,-0.006500000000000367,0.01001908396946477,0.0031325683593749695,0.011326293945312482,0.9899864501953124
564,-0.015041984732825142,-0.006500000000000367,0.01001908396946477,-0.0017502441406250305,-0.0021014404296875178,0.9980430908203124
565,0.00022519083969391174,-0.006500000000000367,0.0023854961832052157,-0.0015061035156250305,-0.015285034179687518,1.0170860595703124
566,0.00022519083969391174,0.008767175572518715,0.0023854961832052157,0.0004470214843749695,0.0027813720703124822,1.0014610595703124
567,0.00022519083969391174,0.0011335877862591603,-0.005248091603054311,-0.0005295410156250305,0.005222778320312482,1.0068321533203124
568,-0.015041984732825142,-0.006500000000000367,0.0023854961832052157,0.0048415527343749695,0.005955200195312482,0.9914512939453124
569,-0.0074083969465655874,0.0011335877862591603,-0.020515267175573393,0.01289819335937497,-0.00014831542968751776,0.9975548095703124
570,-0.0074083969465655874,-0.014133587786259921,-0.005248091603054311,-0.0007736816406250305,-0.005275268554687518,1.0029259033203124
571,-0.0074083969465655874,-0.006500000000000367,0.0023854961832052157,-0.0017502441406250305,0.012546997070312482,0.9904747314453124
572,0.007858778625953466,0.008767175572518715,-0.020515267175573393,-0.0051682128906250305,0.0015606689453124822,0.9958458251953124
573,0.00022519083969391174,-0.006500000000000367,0.0023854961832052157,-0.0024826660156250305,0.0013165283203124822,0.9992637939453124
574,0.007858778625953466,0.016400763358778242,-0.012881679389313866,-4.1259765625030476e-05,-0.014064331054687518,0.9977989501953124
575,0.00022519083969391174,0.008767175572518715,-0.005248091603054311,0.01753686523437497,0.008640747070312482,0.9992637939453124
576,0.00022519083969391174,0.008767175572518715,-0.005248091603054311,0.0009353027343749695,-0.015529174804687518,1.0017052001953124
577,0.007858778625953466,0.008767175572518715,0.0023854961832052157,-0.0005295410156250305,0.0020489501953124822,0.9987755126953124
578,0.00022519083969391174,-0.014133587786259921,0.01001908396946477,-0.01102758789062503,-0.0016131591796875178,0.9977989501953124
579,0.007858778625953466,0.0011335877862591603,0.01001908396946477,0.0026442871093749695,0.005222778320312482,1.0019493408203124
580,0.00022519083969391174,0.0011335877862591603,0.01001908396946477,-0.00834204101562503,-0.0016131591796875178,1.0021934814453124
581,0.015492366412213021,-0.006500000000000367,0.0023854961832052157,0.0004470214843749695,0.0035137939453124822,1.0007286376953124
582,-0.0074083969465655874,-0.006500000000000367,0.0023854961832052157,-0.01053930664062503,-0.015529174804687518,1.0043907470703124
583,0.007858778625953466,0.0011335877862591603,0.01001908396946477,-0.0005295410156250305,0.014744262695312482,1.0134239501953124
584,0.015492366412213021,0.024034351145037797,-0.012881679389313866,0.0028884277343749695,0.006687622070312482,0.9985313720703124
585,0.007858778625953466,-0.006500000000000367,-0.005248091603054311,0.01875756835937497,-0.0033221435546875178,0.9912071533203124
586,-0.015041984732825142,0.008767175572518715,-0.005248091603054311,0.0006911621093749695,0.010593872070312482,0.9980430908203124
587,0.007858778625953466,-0.014133587786259921,-0.005248091603054311,0.00020288085937496952,0.004490356445312482,0.9897423095703124
588,0.007858778625953466,0.008767175572518715,-0.005248091603054311,-0.0015061035156250305,-0.0033221435546875178,1.0014610595703124
589,0.007858778625953466,0.008767175572518715,-0.020515267175573393,0.0004470214843749695,-0.014796752929687518,0.9951134033203124
590,0.00022519083969391174,0.008767175572518715,-0.005248091603054311,0.0006911621093749695,-0.014552612304687518,0.9987755126953124
591,-0.0074083969465655874,-0.021767175572519476,-0.020515267175573393,0.0009353027343749695,0.0008282470703124822,0.9912071533203124
592,0.00022519083969391174,0.0011335877862591603,0.01001908396946477,0.0024001464843749695,0.008884887695312482,0.9941368408203124
593,-0.0074083969465655874,0.008767175572518715,-0.005248091603054311,0.0036208496093749695,0.0030255126953124822,1.0058555908203124
594,-0.0074083969465655874,0.008767175572518715,0.01001908396946477,0.00020288085937496952,0.0015606689453124822,0.9977989501953124
595,0.007858778625953466,0.0011335877862591603,0.0023854961832052157,-0.0012619628906250305,-0.010890502929687518,0.9951134033203124
596,0.015492366412213021,-0.006500000000000367,0.01001908396946477,-0.0054123535156250305,-0.0011248779296875178,0.9995079345703124
597,-0.015041984732825142,-0.029400763358779003,-0.020515267175573393,0.01729272460937497,-0.0021014404296875178,0.9938927001953124
598,0.007858778625953466,-0.006500000000000367,0.017652671755724297,0.0033767089843749695,0.0013165283203124822,0.9907188720703124
599,0.00022519083969391174,0.008767175572518715,0.0023854961832052157,0.0021560058593749695,0.0020489501953124822,0.9970665283203124
600,0.00022519083969391174,0.016400763358778242,0.017652671755724297,0.0019118652343749695,-0.0016131591796875178,0.9980430908203124
601,-0.0074083969465655874,0.008767175572518715,-0.005248091603054311,-0.0032150878906250305,-0.006007690429687518,1.0036583251953124
602,0.00022519083969391174,0.016400763358778242,-0.012881679389313866,0.01729272460937497,0.009373168945312482,0.9990196533203124
603,0.00022519083969391174,0.008767175572518715,0.01001908396946477,0.00020288085937496952,0.0037579345703124822,0.9965782470703124
604,0.007858778625953466,0.031667938931297324,-0.020515267175573393,0.0028884277343749695,0.0037579345703124822,1.0114708251953124
605,0.00022519083969391174,0.0011335877862591603,0.01001908396946477,0.0009353027343749695,0.004490356445312482,0.9958458251953124
606,0.00022519083969391174,0.0011335877862591603,0.0023854961832052157,-0.0034592285156250305,-0.013820190429687518,0.9995079345703124
607,-0.015041984732825142,0.024034351145037797,-0.012881679389313866,0.0011794433593749695,-0.005519409179687518,1.0173302001953124
608,0.00022519083969391174,-0.006500000000000367,0.0023854961832052157,0.0009353027343749695,-0.006251831054687518,0.9992637939453124
609,-0.0074083969465655874,0.008767175572518715,-0.005248091603054311,-4.1259765625030476e-05,-0.0013690185546875178,0.9887657470703124
610,0.023125954198472576,0.0011335877862591603,0.0023854961832052157,-0.0002854003906250305,0.0008282470703124822,0.9892540283203124
611,-0.015041984732825142,0.0011335877862591603,-0.005248091603054311,-0.0002854003906250305,0.004734497070312482,0.9951134033203124
612,0.015492366412213021,-0.006500000000000367,0.0023854961832052157,-0.0032150878906250305,-0.0023455810546875178,0.9980430908203124
613,0.015492366412213021,0.0011335877862591603,0.0023854961832052157,-0.0027268066406250305,-0.0038104248046875178,0.9941368408203124
614,-0.022675572519084697,-0.006500000000000367,0.0023854961832052157,0.00020288085937496952,-0.00014831542968751776,0.9997520751953124
615,0.00022519083969391174,-0.006500000000000367,0.0023854961832052157,0.0011794433593749695,-0.0025897216796875178,1.0007286376953124
616,0.015492366412213021,-0.006500000000000367,0.01001908396946477,0.0004470214843749695,-0.006984252929687518,0.9995079345703124
617,-0.015041984732825142,-0.014133587786259921,0.01001908396946477,-0.0039475097656250305,0.0037579345703124822,1.0046348876953124
618,-0.0074083969465655874,0.008767175572518715,0.01001908396946477,-0.0024826660156250305,-0.0016131591796875178,0.9909630126953124
619,0.023125954198472576,-0.006500000000000367,-0.012881679389313866,-0.00834204101562503,-0.006740112304687518,1.0065880126953124
620,-0.0074083969465655874,0.008767175572518715,0.0023854961832052157,-0.0017502441406250305,-0.00039245605468751776,1.0002403564453124
621,0.007858778625953466,0.008767175572518715,0.0023854961832052157,-0.0017502441406250305,0.0022930908203124822,0.9890098876953124
622,0.00022519083969391174,-0.006500000000000367,0.0023854961832052157,0.0038649902343749695,-0.0023455810546875178,1.0039024658203124
623,0.015492366412213021,0.016400763358778242,0.0023854961832052157,-0.0051682128906250305,-0.005275268554687518,0.9985313720703124
624,0.015492366412213021,0.008767175572518715,-0.020515267175573393,0.0014235839843749695,-0.004298706054687518,1.0085411376953124
625,-0.0074083969465655874,0.008767175572518715,-0.005248091603054311,-0.0024826660156250305,-0.0011248779296875178,0.9968223876953124
626,0.00022519083969391174,0.016400763358778242,-0.005248091603054311,-0.0037033691406250305,0.005955200195312482,0.9902305908203124
627,-0.0074083969465655874,0.0011335877862591603,-0.005248091603054311,0.0038649902343749695,-0.015040893554687518,0.9992637939453124
628,-0.015041984732825142,-0.006500000000000367,0.01001908396946477,-0.0012619628906250305,-0.0021014404296875178,0.9982872314453124
629,-0.0074083969465655874,0.008767175572518715,0.0023854961832052157,0.0014235839843749695,-0.0011248779296875178,1.0021934814453124
630,-0.015041984732825142,0.0011335877862591603,0.0023854961832052157,-0.0017502441406250305,0.0010723876953124822,0.9968223876953124
631,0.00022519083969391174,0.008767175572518715,-0.012881679389313866,-0.0007736816406250305,-0.0035662841796875178,1.0036583251953124
632,-0.0074083969465655874,-0.014133587786259921,-0.005248091603054311,-0.0007736816406250305,0.0022930908203124822,0.9921837158203124
633,0.023125954198472576,-0.006500000000000367,0.0023854961832052157,-0.0002854003906250305,0.010349731445312482,1.0004844970703124
634,-0.015041984732825142,-0.014133587786259921,0.017652671755724297,-0.0005295410156250305,0.015476684570312482,0.9919395751953124
635,0.007858778625953466,-0.006500000000000367,0.017652671755724297,0.0021560058593749695,-0.0011248779296875178,0.9995079345703124
636,0.007858778625953466,-0.014133587786259921,-0.020515267175573393,-0.0034592285156250305,-0.015285034179687518,0.9995079345703124
637,-0.0074083969465655874,0.016400763358778242,-0.005248091603054311,-0.01102758789062503,0.004734497070312482,0.9956016845703124
638,0.00022519083969391174,0.0011335877862591603,0.0023854961832052157,0.0031325683593749695,-0.013331909179687518,0.9904747314453124
639,0.00022519083969391174,-0.006500000000000367,0.017652671755724297,-0.0019943847656250305,-0.004298706054687518,1.0165977783203124
640,-0.015041984732825142,-0.006500000000000367,-0.005248091603054311,0.0004470214843749695,-0.005519409179687518,1.0029259033203124
641,-0.0074083969465655874,-0.021767175572519476,0.017652671755724297,0.0006911621093749695,0.0032696533203124822,1.0019493408203124
642,0.015492366412213021,0.008767175572518715,-0.005248091603054311,-0.0061447753906250305,-0.013820190429687518,1.0019493408203124
643,-0.0074083969465655874,0.0011335877862591603,0.0023854961832052157,-0.0044357910156250305,-0.004786987304687518,0.9892540283203124
644,-0.0074083969465655874,0.0011335877862591603,-0.005248091603054311,-0.01102758789062503,-0.0035662841796875178,1.0024376220703124
645,0.015492366412213021,0.008767175572518715,-0.005248091603054311,0.0026442871093749695,0.0022930908203124822,0.9995079345703124
646,0.00022519083969391174,-0.014133587786259921,-0.005248091603054311,0.0019118652343749695,0.0035137939453124822,0.9948692626953124
647,-0.0074083969465655874,-0.006500000000000367,0.01001908396946477,0.0014235839843749695,-0.0013690185546875178,0.9941368408203124
648,-0.0074083969465655874,-0.014133587786259921,0.01001908396946477,-0.0034592285156250305,0.013767700195312482,0.9973106689453124
649,0.00022519083969391174,0.0011335877862591603,0.0023854961832052157,-0.0068771972656250305,-0.011867065429687518,1.0017052001953124
650,0.00022519083969391174,-0.014133587786259921,0.0023854961832052157,-0.0039475097656250305,-0.0008807373046875178,1.0017052001953124
651,0.00022519083969391174,-0.006500000000000367,0.0023854961832052157,0.0014235839843749695,0.0025372314453124822,0.9985313720703124
652,-0.022675572519084697,0.008767175572518715,0.017652671755724297,0.0021560058593749695,0.014744262695312482,0.9999962158203124
653,0.015492366412213021,-0.014133587786259921,-0.005248091603054311,-0.0017502441406250305,-0.0030780029296875178,0.9982872314453124
654,-0.0074083969465655874,0.008767175572518715,0.0023854961832052157,-0.0019943847656250305,-0.013087768554687518,1.0004844970703124
655,-0.0074083969465655874,0.016400763358778242,0.01001908396946477,0.00020288085937496952,-0.013331909179687518,1.0026817626953124
656,0.00022519083969391174,-0.03703435114503856,-0.012881679389313866,0.0011794433593749695,0.0027813720703124822,0.9975548095703124
657,0.007858778625953466,0.0011335877862591603,0.017652671755724297,0.0036208496093749695,-0.0030780029296875178,1.0014610595703124
658,-0.0074083969465655874,0.0011335877862591603,-0.005248091603054311,0.0024001464843749695,-0.004786987304687518,0.9958458251953124
659,-0.0074083969465655874,0.008767175572518715,0.0023854961832052157,-0.0046799316406250305,0.0020489501953124822,1.0017052001953124
660,-0.015041984732825142,-0.006500000000000367,-0.005248091603054311,0.0024001464843749695,-0.011134643554687518,0.9997520751953124
661,0.015492366412213021,0.0011335877862591603,0.0023854961832052157,-0.0027268066406250305,0.0032696533203124822,1.0178184814453124
662,0.007858778625953466,0.008767175572518715,0.01001908396946477,-0.0017502441406250305,0.0025372314453124822,0.9926719970703124
663,0.00022519083969391174,0.008767175572518715,-0.005248091603054311,0.0004470214843749695,0.0027813720703124822,1.0012169189453124
664,-0.015041984732825142,-0.006500000000000367,0.017652671755724297,0.0024001464843749695,-0.0025897216796875178,1.0019493408203124
665,0.00022519083969391174,0.008767175572518715,0.01001908396946477,-0.0054123535156250305,0.0010723876953124822,1.0043907470703124
666,0.007858778625953466,0.0011335877862591603,-0.005248091603054311,0.00801538085937497,-0.005031127929687518,1.0039024658203124
667,0.007858778625953466,0.0011335877862591603,-0.005248091603054311,0.0031325683593749695,0.0008282470703124822,0.9958458251953124
668,-0.0074083969465655874,-0.006500000000000367,-0.005248091603054311,-0.0054123535156250305,-0.0006365966796875178,0.9963341064453124
669,0.007858778625953466,0.008767175572518715,0.0023854961832052157,0.0021560058593749695,0.014500122070312482,1.0009727783203124
670,0.00022519083969391174,0.0011335877862591603,-0.005248091603054311,0.0041091308593749695,-0.0006365966796875178,0.9916954345703124
671,0.007858778625953466,-0.006500000000000367,-0.020515267175573393,0.0038649902343749695,-0.0025897216796875178,1.0158653564453124
672,0.00022519083969391174,0.016400763358778242,-0.005248091603054311,0.0043532714843749695,-0.00014831542968751776,0.9999962158203124
673,0.007858778625953466,0.016400763358778242,-0.020515267175573393,-0.0015061035156250305,-0.0033221435546875178,1.0002403564453124
674,0.007858778625953466,0.024034351145037797,0.0023854961832052157,0.0014235839843749695,0.004002075195312482,0.9948692626953124
675,0.00022519083969391174,0.0011335877862591603,0.01001908396946477,-0.01053930664062503,0.011326293945312482,0.9931602783203124
676,0.007858778625953466,0.008767175572518715,-0.020515267175573393,-0.01151586914062503,0.0030255126953124822,0.9980430908203124
677,-0.0074083969465655874,0.008767175572518715,-0.028148854961832948,-0.0027268066406250305,-0.007472534179687518,0.9973106689453124
678,0.007858778625953466,0.008767175572518715,0.0023854961832052157,-0.0019943847656250305,-0.0028338623046875178,1.0041466064453124
679,-0.0074083969465655874,0.0011335877862591603,-0.005248091603054311,-0.0056564941406250305,0.00033996582031248224,1.0004844970703124
680,-0.015041984732825142,0.008767175572518715,-0.012881679389313866,0.0031325683593749695,-0.0021014404296875178,0.9985313720703124
681,0.015492366412213021,0.008767175572518715,0.0023854961832052157,-0.0002854003906250305,-0.0021014404296875178,1.0009727783203124
682,0.00022519083969391174,-0.014133587786259921,0.0023854961832052157,-0.0007736816406250305,9.582519531248224e-05,1.0168419189453124
683,-0.015041984732825142,0.008767175572518715,-0.005248091603054311,0.0019118652343749695,-0.0023455810546875178,1.0183067626953124
684,0.00022519083969391174,-0.006500000000000367,0.0023854961832052157,-0.0027268066406250305,-0.0038104248046875178,1.0004844970703124
685,0.00022519083969391174,-0.014133587786259921,0.0023854961832052157,-0.0049240722656250305,-0.011622924804687518,1.0012169189453124
686,-0.0074083969465655874,-0.014133587786259921,-0.020515267175573393,-0.0041916503906250305,-0.0023455810546875178,0.9992637939453124
687,0.00022519083969391174,-0.014133587786259921,0.01001908396946477,0.0043532714843749695,-0.0006365966796875178,0.9892540283203124
688,-0.0074083969465655874,0.008767175572518715,0.0023854961832052157,-0.00883032226562503,-0.004542846679687518,0.9892540283203124
689,0.00022519083969391174,-0.014133587786259921,-0.005248091603054311,-0.0015061035156250305,-0.0035662841796875178,0.9902305908203124
690,-0.0074083969465655874,0.008767175572518715,-0.005248091603054311,0.0004470214843749695,-0.015285034179687518,1.0004844970703124
691,0.00022519083969391174,-0.006500000000000367,-0.012881679389313866,0.0016677246093749695,-0.013820190429687518,1.0107384033203124
692,0.00022519083969391174,0.008767175572518715,0.0023854961832052157,-0.0015061035156250305,-0.005031127929687518,0.9963341064453124
693,0.007858778625953466,-0.021767175572519476,-0.012881679389313866,-0.0005295410156250305,0.0027813720703124822,1.0070762939453124
694,-0.0074083969465655874,0.0011335877862591603,-0.005248091603054311,0.0009353027343749695,9.582519531248224e-05,0.9965782470703124
695,-0.0074083969465655874,0.0011335877862591603,0.0023854961832052157,-0.0005295410156250305,0.0010723876953124822,0.9941368408203124
696,0.007858778625953466,0.008767175572518715,0.0023854961832052157,-0.0015061035156250305,-0.0013690185546875178,0.9916954345703124
697,0.007858778625953466,-0.006500000000000367,0.0023854961832052157,-0.0051682128906250305,-0.004298706054687518,0.9948692626953124
698,0.00022519083969391174,-0.006500000000000367,0.01001908396946477,0.01948999023437497,9.582519531248224e-05,0.9973106689453124
699,-0.015041984732825142,0.0011335877862591603,-0.012881679389313866,-0.0068771972656250305,-0.0011248779296875178,1.0004844970703124
700,0.00022519083969391174,0.0011335877862591603,-0.012881679389313866,0.0011794433593749695,0.007908325195312482,0.9968223876953124
701,-0.022675572519084697,-0.006500000000000367,-0.005248091603054311,-4.1259765625030476e-05,0.004978637695312482,0.9973106689453124
702,-0.0074083969465655874,0.008767175572518715,0.01001908396946477,0.01656030273437497,0.0030255126953124822,0.9999962158203124
703,0.00022519083969391174,0.008767175572518715,0.01001908396946477,0.0011794433593749695,-0.00039245605468751776,0.9958458251953124
704,0.015492366412213021,-0.006500000000000367,0.017652671755724297,-0.0046799316406250305,0.0030255126953124822,0.9973106689453124
705,0.015492366412213021,0.008767175572518715,0.01001908396946477,0.0031325683593749695,0.006443481445312482,1.0014610595703124
706,0.007858778625953466,0.008767175572518715,0.017652671755724297,-0.0005295410156250305,-0.0028338623046875178,1.0144005126953124
707,0.007858778625953466,0.016400763358778242,-0.005248091603054311,-0.0059006347656250305,9.582519531248224e-05,0.9975548095703124
708,-0.015041984732825142,-0.021767175572519476,-0.005248091603054311,-4.1259765625030476e-05,0.0025372314453124822,0.9987755126953124
709,0.015492366412213021,-0.006500000000000367,0.01001908396946477,0.0036208496093749695,0.011570434570312482,1.0017052001953124
710,0.00022519083969391174,-0.006500000000000367,0.017652671755724297,-0.0027268066406250305,-0.0016131591796875178,0.9975548095703124
711,-0.015041984732825142,0.008767175572518715,0.0023854961832052157,-0.0007736816406250305,0.0037579345703124822,0.9953575439453124
712,-0.0074083969465655874,0.008767175572518715,-0.005248091603054311,0.01436303710937497,-0.014552612304687518,0.9934044189453124
713,0.00022519083969391174,0.0011335877862591603,-0.012881679389313866,-0.0007736816406250305,0.0020489501953124822,0.9987755126953124
714,0.007858778625953466,0.008767175572518715,0.01001908396946477,-0.0002854003906250305,-0.004054565429687518,0.9997520751953124
715,0.007858778625953466,0.0011335877862591603,0.0023854961832052157,-4.1259765625030476e-05,0.004978637695312482,1.0122032470703124
716,-0.0074083969465655874,0.016400763358778242,0.017652671755724297,-0.0027268066406250305,0.005466918945312482,1.0104942626953124
717,0.00022519083969391174,-0.006500000000000367,-0.012881679389313866,0.01753686523437497,-0.0035662841796875178,1.0029259033203124
718,-0.015041984732825142,0.0011335877862591603,-0.005248091603054311,0.0011794433593749695,0.014500122070312482,0.9985313720703124
719,0.015492366412213021,0.0011335877862591603,-0.005248091603054311,-0.0061447753906250305,0.015232543945312482,0.9990196533203124
720,-0.0074083969465655874,0.0011335877862591603,0.0023854961832052157,0.0041091308593749695,0.013279418945312482,1.0021934814453124
721,0.00022519083969391174,0.0011335877862591603,0.01001908396946477,-0.01029516601562503,-0.0011248779296875178,1.0024376220703124
722,-0.0074083969465655874,0.016400763358778242,0.0023854961832052157,0.01875756835937497,0.0025372314453124822,1.0036583251953124
723,0.00022519083969391174,-0.006500000000000367,0.0023854961832052157,0.01167749023437497,0.0008282470703124822,0.9992637939453124
724,-0.0074083969465655874,-0.006500000000000367,0.01001908396946477,0.0004470214843749695,-0.0023455810546875178,0.9938927001953124
725,0.007858778625953466,0.008767175572518715,-0.012881679389313866,0.0021560058593749695,-0.0008807373046875178,0.9987755126953124
726,-0.0074083969465655874,0.008767175572518715,-0.005248091603054311,-0.0012619628906250305,0.0010723876953124822,1.0014610595703124
727,0.00022519083969391174,-0.014133587786259921,0.01001908396946477,-0.0005295410156250305,-0.0011248779296875178,0.9985313720703124
728,-0.0074083969465655874,0.016400763358778242,-0.005248091603054311,-0.0027268066406250305,0.00033996582031248224,1.0026817626953124
729,0.023125954198472576,-0.006500000000000367,-0.005248091603054311,0.01240991210937497,0.00033996582031248224,1.0007286376953124
730,-0.022675572519084697,-0.006500000000000367,0.0023854961832052157,0.0004470214843749695,-0.0016131591796875178,1.0004844970703124
731,0.007858778625953466,-0.006500000000000367,-0.005248091603054311,-0.0010178222656250305,0.009617309570312482,0.9970665283203124
732,0.007858778625953466,0.0011335877862591603,0.017652671755724297,0.0031325683593749695,-0.00039245605468751776,1.0017052001953124
733,0.015492366412213021,0.0011335877862591603,0.0023854961832052157,-0.0029709472656250305,0.0010723876953124822,1.0031700439453124
734,-0.0074083969465655874,0.0011335877862591603,0.0023854961832052157,-0.0076096191406250305,0.0030255126953124822,1.0009727783203124
735,0.00022519083969391174,0.008767175572518715,0.0023854961832052157,0.01411889648437497,-0.014064331054687518,1.0043907470703124
736,0.007858778625953466,-0.006500000000000367,-0.012881679389313866,-0.0024826660156250305,-0.005031127929687518,1.0004844970703124
737,0.00022519083969391174,-0.006500000000000367,0.01001908396946477,0.0036208496093749695,-0.0033221435546875178,0.9948692626953124
738,0.007858778625953466,0.0011335877862591603,0.0023854961832052157,0.00020288085937496952,9.582519531248224e-05,1.0043907470703124
739,0.00022519083969391174,-0.014133587786259921,0.01001908396946477,-0.0017502441406250305,0.0020489501953124822,0.9963341064453124
740,0.00022519083969391174,-0.006500000000000367,0.0023854961832052157,0.0060622558593749695,0.005711059570312482,1.0009727783203124
741,-0.0074083969465655874,0.0011335877862591603,-0.005248091603054311,0.01924584960937497,-0.0013690185546875178,0.9987755126953124
742,-0.0074083969465655874,0.008767175572518715,-0.028148854961832948,0.0065505371093749695,0.011082153320312482,0.9919395751953124
743,0.007858778625953466,0.024034351145037797,-0.012881679389313866,0.0036208496093749695,0.014011840820312482,1.0007286376953124
744,0.007858778625953466,0.0011335877862591603,0.025286259541983824,0.00020288085937496952,0.0005841064453124822,1.0036583251953124
745,0.007858778625953466,-0.006500000000000367,-0.005248091603054311,-0.01102758789062503,0.0022930908203124822,1.0014610595703124
746,0.00022519083969391174,0.008767175572518715,-0.005248091603054311,-0.0017502441406250305,0.006199340820312482,0.9958458251953124
747,0.00022519083969391174,-0.029400763358779003,-0.005248091603054311,0.0019118652343749695,-0.015040893554687518,0.9902305908203124
748,-0.015041984732825142,-0.006500000000000367,-0.020515267175573393,-0.0037033691406250305,0.006443481445312482,0.9907188720703124
749,0.015492366412213021,0.008767175572518715,-0.005248091603054311,0.0043532714843749695,-0.014552612304687518,1.0026817626953124
750,0.00022519083969391174,0.008767175572518715,0.025286259541983824,-4.1259765625030476e-05,0.014011840820312482,1.0048790283203124
751,-0.0074083969465655874,-0.006500000000000367,-0.005248091603054311,0.0043532714843749695,-0.013576049804687518,0.9943809814453124
752,0.007858778625953466,0.0011335877862591603,-0.020515267175573393,-0.0007736816406250305,-0.004542846679687518,1.0026817626953124
753,0.00022519083969391174,0.0011335877862591603,0.0023854961832052157,-0.0012619628906250305,0.0005841064453124822,0.9963341064453124
754,-0.0074083969465655874,0.008767175572518715,0.025286259541983824,-0.0017502441406250305,-0.0033221435546875178,1.0092735595703124
755,0.015492366412213021,-0.006500000000000367,0.01001908396946477,0.0041091308593749695,-0.015529174804687518,1.0017052001953124
756,-0.022675572519084697,-0.014133587786259921,0.01001908396946477,-0.0005295410156250305,0.013035278320312482,0.9973106689453124
757,0.00022519083969391174,-0.006500000000000367,0.0023854961832052157,-0.0066330566406250305,0.015476684570312482,1.0004844970703124
758,0.00022519083969391174,0.031667938931297324,-0.012881679389313866,0.0014235839843749695,-0.012355346679687518,1.0043907470703124
759,-0.0074083969465655874,-0.006500000000000367,0.0023854961832052157,-0.0002854003906250305,-0.0023455810546875178,1.0024376220703124
760,0.00022519083969391174,-0.006500000000000367,0.0023854961832052157,-4.1259765625030476e-05,0.0032696533203124822,1.0009727783203124
761,0.00022519083969391174,0.0011335877862591603,0.0023854961832052157,-0.0039475097656250305,-0.0018572998046875178,0.9973106689453124
762,-0.015041984732825142,0.0011335877862591603,0.01001908396946477,-0.0015061035156250305,0.0015606689453124822,0.9985313720703124
763,0.007858778625953466,0.0011335877862591603,-0.012881679389313866,-0.0044357910156250305,-0.00039245605468751776,0.9975548095703124
764,-0.015041984732825142,0.016400763358778242,0.01001908396946477,-0.0022385253906250305,-0.014796752929687518,1.0039024658203124
765,0.007858778625953466,0.008767175572518715,0.01001908396946477,0.0031325683593749695,0.006443481445312482,0.9953575439453124
766,-0.015041984732825142,-0.006500000000000367,0.017652671755724297,0.0028884277343749695,-0.013576049804687518,1.0019493408203124
767,-0.015041984732825142,-0.029400763358779003,0.01001908396946477,0.0004470214843749695,-0.00039245605468751776,1.0007286376953124
768,0.00022519083969391174,-0.006500000000000367,0.01001908396946477,-0.01127172851562503,0.004246215820312482,0.9999962158203124
769,0.00022519083969391174,0.008767175572518715,-0.005248091603054311,-0.0010178222656250305,0.013523559570312482,1.0012169189453124
770,0.007858778625953466,0.0011335877862591603,0.01001908396946477,-0.0024826660156250305,-0.013331909179687518,0.9985313720703124
771,0.00022519083969391174,0.0011335877862591603,0.01001908396946477,-0.0019943847656250305,-0.014552612304687518,0.9968223876953124
772,-0.015041984732825142,0.008767175572518715,0.0023854961832052157,-0.0046799316406250305,-0.0021014404296875178,0.9929161376953124
773,0.00022519083969391174,-0.006500000000000367,-0.005248091603054311,0.01875756835937497,0.005222778320312482,0.9963341064453124
774,0.00022519083969391174,-0.014133587786259921,-0.012881679389313866,-0.0022385253906250305,-0.008449096679687518,1.0019493408203124
775,-0.015041984732825142,0.008767175572518715,0.0023854961832052157,0.0024001464843749695,0.010105590820312482,1.0024376220703124
776,0.00022519083969391174,0.0011335877862591603,0.01001908396946477,-0.0027268066406250305,0.004978637695312482,1.0014610595703124
777,0.00022519083969391174,0.0011335877862591603,0.017652671755724297,-0.0015061035156250305,0.014011840820312482,0.9977989501953124
778,0.00022519083969391174,0.008767175572518715,0.0023854961832052157,0.0024001464843749695,-0.0011248779296875178,1.0041466064453124
779,-0.0074083969465655874,-0.006500000000000367,0.025286259541983824,0.0033767089843749695,-0.006251831054687518,0.9987755126953124
780,-0.0074083969465655874,0.016400763358778242,0.0023854961832052157,-4.1259765625030476e-05,-0.0018572998046875178,1.0017052001953124
781,0.007858778625953466,-0.014133587786259921,-0.012881679389313866,-0.0002854003906250305,-0.006007690429687518,0.9977989501953124
782,0.015492366412213021,-0.006500000000000367,0.01001908396946477,-0.0061447753906250305,0.00033996582031248224,1.0034141845703124
783,0.007858778625953466,0.0011335877862591603,-0.005248091603054311,-0.0049240722656250305,0.005711059570312482,0.9985313720703124
784,0.007858778625953466,0.008767175572518715,0.017652671755724297,-0.0022385253906250305,-0.015285034179687518,0.9982872314453124
785,0.00022519083969391174,0.0011335877862591603,-0.012881679389313866,-0.0012619628906250305,0.004978637695312482,1.0017052001953124
786,0.00022519083969391174,0.0011335877862591603,-0.005248091603054311,0.0019118652343749695,0.013279418945312482,1.0004844970703124
787,0.015492366412213021,0.008767175572518715,-0.012881679389313866,0.0009353027343749695,0.004490356445312482,1.0165977783203124
788,-0.0074083969465655874,-0.021767175572519476,0.0023854961832052157,0.0009353027343749695,-0.006495971679687518,0.9943809814453124
789,0.00022519083969391174,0.008767175572518715,0.0023854961832052157,-0.01078344726562503,-0.0021014404296875178,0.9919395751953124
790,0.007858778625953466,-0.021767175572519476,0.0023854961832052157,0.0006911621093749695,0.0030255126953124822,0.9951134033203124
791,0.015492366412213021,-0.014133587786259921,-0.005248091603054311,-0.0032150878906250305,0.005466918945312482,1.0036583251953124
792,-0.0074083969465655874,0.008767175572518715,-0.005248091603054311,0.0016677246093749695,-0.0033221435546875178,1.0063438720703124
793,-0.0074083969465655874,0.008767175572518715,0.0023854961832052157,-4.1259765625030476e-05,-0.00039245605468751776,1.0082969970703124
794,-0.0074083969465655874,-0.006500000000000367,0.017652671755724297,0.00020288085937496952,0.012302856445312482,1.0036583251953124
795,0.00022519083969391174,0.0011335877862591603,0.0023854961832052157,-0.0007736816406250305,-0.0023455810546875178,1.0173302001953124
796,0.007858778625953466,0.031667938931297324,0.0023854961832052157,-0.0054123535156250305,-0.010158081054687518,0.9965782470703124
797,0.007858778625953466,0.008767175572518715,0.0023854961832052157,0.0019118652343749695,-0.011867065429687518,0.9924278564453124
798,-0.0074083969465655874,-0.021767175572519476,-0.005248091603054311,-0.0056564941406250305,-0.00014831542968751776,0.9999962158203124
799,0.007858778625953466,0.008767175572518715,0.01001908396946477,-0.01102758789062503,0.0010723876953124822,0.9958458251953124
800,0.00022519083969391174,0.008767175572518715,0.0023854961832052157,0.0024001464843749695,-0.0008807373046875178,0.9958458251953124
801,0.007858778625953466,0.008767175572518715,-0.005248091603054311,-0.0002854003906250305,0.0018048095703124822,0.9943809814453124
802,0.015492366412213021,0.0011335877862591603,0.01001908396946477,0.01924584960937497,-0.006740112304687518,1.0056114501953124
803,0.00022519083969391174,-0.006500000000000367,-0.012881679389313866,0.0016677246093749695,-0.011378784179687518,1.0087852783203124
804,0.00022519083969391174,-0.006500000000000367,-0.005248091603054311,0.0011794433593749695,0.00033996582031248224,0.9985313720703124
805,0.015492366412213021,0.016400763358778242,-0.005248091603054311,-0.0044357910156250305,0.0035137939453124822,0.9960899658203124
806,0.00022519083969391174,0.008767175572518715,0.0023854961832052157,-0.0044357910156250305,-0.004786987304687518,1.0021934814453124
807,0.023125954198472576,-0.006500000000000367,0.017652671755724297,-0.0034592285156250305,-0.015285034179687518,0.9980430908203124
808,0.00022519083969391174,-0.006500000000000367,0.01001908396946477,-0.0019943847656250305,-0.0023455810546875178,0.9980430908203124
809,-0.015041984732825142,0.016400763358778242,-0.005248091603054311,-0.0012619628906250305,-0.004298706054687518,0.9958458251953124
810,0.007858778625953466,0.008767175572518715,-0.012881679389313866,0.0004470214843749695,0.0020489501953124822,1.0019493408203124
811,0.007858778625953466,0.008767175572518715,-0.005248091603054311,-0.0005295410156250305,0.012302856445312482,0.9956016845703124
812,-0.0074083969465655874,0.008767175572518715,0.0023854961832052157,0.0031325683593749695,0.0037579345703124822,0.9892540283203124
813,-0.015041984732825142,0.008767175572518715,-0.012881679389313866,0.01778100585937497,-0.0035662841796875178,1.0031700439453124
814,-0.015041984732825142,-0.014133587786259921,0.0023854961832052157,0.0016677246093749695,-0.0011248779296875178,0.9958458251953124
815,-0.0074083969465655874,-0.006500000000000367,-0.012881679389313866,0.0072829589843749695,0.0030255126953124822,0.9924278564453124
816,-0.0074083969465655874,0.0011335877862591603,-0.012881679389313866,-0.01102758789062503,0.0025372314453124822,0.9977989501953124
817,0.007858778625953466,0.016400763358778242,-0.005248091603054311,0.0016677246093749695,-0.0013690185546875178,0.9977989501953124
818,0.00022519083969391174,0.024034351145037797,0.01001908396946477,-0.0039475097656250305,-0.0028338623046875178,1.0004844970703124
819,0.00022519083969391174,0.008767175572518715,0.0023854961832052157,-0.0019943847656250305,-0.0028338623046875178,1.0097618408203124
820,-0.0074083969465655874,-0.006500000000000367,-0.012881679389313866,0.0026442871093749695,-0.014796752929687518,0.9951134033203124
821,0.00022519083969391174,0.008767175572518715,-0.020515267175573393,0.0024001464843749695,-0.0011248779296875178,0.9985313720703124
822,0.007858778625953466,0.008767175572518715,0.01001908396946477,0.0011794433593749695,0.005222778320312482,0.9951134033203124
823,0.00022519083969391174,-0.006500000000000367,0.01001908396946477,-0.0024826660156250305,0.004002075195312482,0.9992637939453124
824,0.007858778625953466,0.0011335877862591603,0.01001908396946477,-0.0010178222656250305,-0.0028338623046875178,1.0024376220703124
825,0.00022519083969391174,0.016400763358778242,-0.005248091603054311,-0.0051682128906250305,-0.00039245605468751776,0.9997520751953124
826,0.00022519083969391174,0.008767175572518715,-0.005248091603054311,-0.0068771972656250305,-0.0008807373046875178,0.9997520751953124
827,0.00022519083969391174,-0.021767175572519476,0.0023854961832052157,-0.0017502441406250305,0.0037579345703124822,1.0021934814453124
828,0.007858778625953466,0.0011335877862591603,-0.005248091603054311,-0.0017502441406250305,0.0032696533203124822,1.0170860595703124
829,0.007858778625953466,0.024034351145037797,0.01001908396946477,-0.0019943847656250305,0.006931762695312482,0.9948692626953124
830,-0.0074083969465655874,-0.006500000000000367,0.017652671755724297,-0.0032150878906250305,0.0010723876953124822,1.0026817626953124
831,-0.0074083969465655874,0.0011335877862591603,0.01001908396946477,0.00020288085937496952,0.012302856445312482,0.9968223876953124
832,-0.0074083969465655874,-0.006500000000000367,0.0023854961832052157,-0.0068771972656250305,0.005222778320312482,0.9943809814453124
833,-0.0074083969465655874,-0.006500000000000367,0.0023854961832052157,-0.0039475097656250305,-0.0028338623046875178,0.9970665283203124
834,0.015492366412213021,-0.014133587786259921,-0.005248091603054311,0.0004470214843749695,-0.0008807373046875178,0.9999962158203124
835,0.00022519083969391174,0.016400763358778242,0.0023854961832052157,-0.0007736816406250305,0.0018048095703124822,0.9948692626953124
836,0.015492366412213021,-0.006500000000000367,-0.028148854961832948,-0.0063889160156250305,0.0005841064453124822,1.0014610595703124
837,0.00022519083969391174,0.016400763358778242,0.0023854961832052157,-0.0027268066406250305,-0.0011248779296875178,0.9999962158203124
838,-0.022675572519084697,0.008767175572518715,-0.020515267175573393,-0.0015061035156250305,0.0037579345703124822,1.0009727783203124
839,0.00022519083969391174,-0.006500000000000367,0.0023854961832052157,-0.0024826660156250305,0.0005841064453124822,1.0034141845703124
840,-0.0074083969465655874,0.008767175572518715,0.017652671755724297,0.0011794433593749695,0.0013165283203124822,1.0017052001953124
841,0.007858778625953466,0.024034351145037797,0.01001908396946477,-4.1259765625030476e-05,-0.004542846679687518,1.0004844970703124
842,0.007858778625953466,-0.03703435114503856,0.01001908396946477,0.0011794433593749695,-0.014064331054687518,1.0153770751953124
843,0.007858778625953466,0.0011335877862591603,0.0023854961832052157,-0.0046799316406250305,0.0022930908203124822,1.0104942626953124
844,0.007858778625953466,0.008767175572518715,-0.012881679389313866,0.01704858398437497,-0.0028338623046875178,0.9941368408203124
845,0.00022519083969391174,-0.014133587786259921,0.0023854961832052157,-0.0037033691406250305,-0.0025897216796875178,1.0048790283203124
846,0.00022519083969391174,0.016400763358778242,-0.005248091603054311,0.01533959960937497,-0.0038104248046875178,1.0095177001953124
847,0.015492366412213021,0.0011335877862591603,-0.005248091603054311,-0.0029709472656250305,-0.012355346679687518,0.9946251220703124
848,0.00022519083969391174,-0.006500000000000367,-0.005248091603054311,0.00020288085937496952,-0.015529174804687518,1.0146446533203124
849,-0.0074083969465655874,0.016400763358778242,-0.005248091603054311,-0.0012619628906250305,0.0013165283203124822,1.0100059814453124
850,0.023125954198472576,-0.006500000000000367,0.0023854961832052157,-0.00809790039062503,0.0032696533203124822,1.0009727783203124
851,0.007858778625953466,0.0011335877862591603,0.0023854961832052157,0.01802514648437497,-0.0011248779296875178,1.0007286376953124
852,-0.015041984732825142,-0.014133587786259921,0.0023854961832052157,0.01875756835937497,-0.011867065429687518,1.0021934814453124
853,-0.0074083969465655874,0.0011335877862591603,0.0023854961832052157,-0.0005295410156250305,0.011082153320312482,1.0004844970703124
854,0.015492366412213021,-0.006500000000000367,0.0023854961832052157,0.0026442871093749695,-0.0033221435546875178,1.0151329345703124
855,0.007858778625953466,-0.021767175572519476,0.01001908396946477,-0.0012619628906250305,0.0018048095703124822,0.9894981689453124
856,-0.015041984732825142,-0.006500000000000367,0.01001908396946477,-0.0022385253906250305,-0.00014831542968751776,1.0046348876953124
857,-0.015041984732825142,-0.006500000000000367,0.025286259541983824,-0.0015061035156250305,0.005711059570312482,1.0048790283203124
858,0.007858778625953466,0.0011335877862591603,0.01001908396946477,-0.0002854003906250305,0.011570434570312482,0.9894981689453124
859,0.015492366412213021,0.024034351145037797,0.0023854961832052157,-0.0046799316406250305,0.013767700195312482,0.9992637939453124
860,-0.022675572519084697,-0.006500000000000367,-0.012881679389313866,0.0041091308593749695,9.582519531248224e-05,1.0109825439453124
861,0.015492366412213021,0.024034351145037797,0.0023854961832052157,-0.0024826660156250305,0.004978637695312482,0.9999962158203124
862,0.00022519083969391174,0.0011335877862591603,0.017652671755724297,-0.0019943847656250305,0.004490356445312482,1.0036583251953124
863,0.007858778625953466,-0.006500000000000367,0.0023854961832052157,-0.0046799316406250305,0.0013165283203124822,0.9965782470703124
864,0.00022519083969391174,0.024034351145037797,0.01001908396946477,0.0009353027343749695,-0.0023455810546875178,1.0014610595703124
865,-0.0074083969465655874,-0.006500000000000367,-0.005248091603054311,0.0019118652343749695,0.014744262695312482,0.9877891845703124
866,0.00022519083969391174,0.008767175572518715,0.0023854961832052157,0.0031325683593749695,-0.015529174804687518,1.0021934814453124
867,0.00022519083969391174,-0.014133587786259921,0.017652671755724297,0.0009353027343749695,-0.005519409179687518,0.9992637939453124
868,0.015492366412213021,0.008767175572518715,0.01001908396946477,-0.01102758789062503,-0.0023455810546875178,1.0034141845703124
869,0.007858778625953466,0.016400763358778242,0.01001908396946477,-0.0037033691406250305,0.012058715820312482,0.9909630126953124
870,-0.0074083969465655874,0.016400763358778242,-0.005248091603054311,0.0024001464843749695,-0.015529174804687518,1.0170860595703124
871,0.007858778625953466,-0.006500000000000367,0.0023854961832052157,-0.0027268066406250305,0.004978637695312482,1.0148887939453124
872,0.00022519083969391174,0.0011335877862591603,0.017652671755724297,-0.0056564941406250305,0.0037579345703124822,0.9951134033203124
873,0.00022519083969391174,0.008767175572518715,0.01001908396946477,0.0021560058593749695,0.004002075195312482,1.0019493408203124
874,-0.0074083969465655874,0.016400763358778242,0.0023854961832052157,-0.0010178222656250305,-0.008937377929687518,1.0009727783203124
875,0.007858778625953466,0.008767175572518715,0.0023854961832052157,-0.0039475097656250305,0.007664184570312482,1.0019493408203124
876,0.00022519083969391174,-0.006500000000000367,0.01001908396946477,0.0043532714843749695,0.014744262695312482,1.0007286376953124
877,0.00022519083969391174,-0.014133587786259921,-0.005248091603054311,0.0009353027343749695,-0.014796752929687518,0.9997520751953124
878,-0.0074083969465655874,0.0011335877862591603,-0.005248091603054311,0.00020288085937496952,-0.014308471679687518,0.9977989501953124
879,0.015492366412213021,-0.006500000000000367,-0.012881679389313866,-0.0056564941406250305,-0.0025897216796875178,1.0004844970703124
880,-0.0074083969465655874,-0.006500000000000367,0.01001908396946477,-4.1259765625030476e-05,-0.005031127929687518,1.0002403564453124
881,-0.0074083969465655874,0.0011335877862591603,-0.005248091603054311,-0.0010178222656250305,-0.011867065429687518,1.0009727783203124
882,0.007858778625953466,0.008767175572518715,0.017652671755724297,-0.0002854003906250305,-0.0035662841796875178,0.9975548095703124
883,0.00022519083969391174,0.0011335877862591603,0.01001908396946477,-0.0012619628906250305,0.0010723876953124822,0.9941368408203124
884,0.00022519083969391174,0.008767175572518715,-0.005248091603054311,0.0031325683593749695,-0.0030780029296875178,1.0024376220703124
885,0.00022519083969391174,0.008767175572518715,-0.020515267175573393,0.0016677246093749695,0.00033996582031248224,0.9975548095703124
886,0.00022519083969391174,0.0011335877862591603,0.0023854961832052157,-0.0012619628906250305,0.015232543945312482,1.0041466064453124
887,0.00022519083969391174,0.008767175572518715,-0.005248091603054311,-0.0029709472656250305,-0.012355346679687518,0.9987755126953124
888,0.00022519083969391174,0.0011335877862591603,0.01001908396946477,0.0009353027343749695,-0.0018572998046875178,0.9990196533203124
889,-0.0074083969465655874,0.016400763358778242,0.0023854961832052157,-0.0041916503906250305,-0.0023455810546875178,1.0029259033203124
890,0.007858778625953466,0.008767175572518715,-0.012881679389313866,-4.1259765625030476e-05,-0.0011248779296875178,0.9995079345703124
891,0.007858778625953466,-0.014133587786259921,-0.005248091603054311,-0.00834204101562503,-0.0035662841796875178,1.0085411376953124
892,0.00022519083969391174,0.008767175572518715,0.01001908396946477,0.00020288085937496952,0.004978637695312482,1.0185509033203124
893,0.015492366412213021,-0.006500000000000367,0.01001908396946477,-0.0010178222656250305,-0.0018572998046875178,0.9985313720703124
894,0.007858778625953466,0.0011335877862591603,0.0023854961832052157,0.0006911621093749695,-0.0035662841796875178,0.9975548095703124
895,0.00022519083969391174,-0.021767175572519476,0.0023854961832052157,-0.01078344726562503,0.0010723876953124822,1.0007286376953124
896,-0.022675572519084697,0.0011335877862591603,0.017652671755724297,0.0033767089843749695,0.0018048095703124822,0.9995079345703124
897,0.00022519083969391174,0.0011335877862591603,0.0023854961832052157,-0.0002854003906250305,-0.0008807373046875178,1.0009727783203124
898,-0.022675572519084697,0.0011335877862591603,0.017652671755724297,0.0011794433593749695,0.0018048095703124822,0.9960899658203124
