Number,Gyro_X,Gyro_Y,Gyro_Z,Acc_X,Acc_Y,Acc_Z
1,0.01204198473282403,0.004656488549618809,-0.0030496183206082383,-0.010091674804687686,-0.008091064453124965,1.0051083984374989
2,0.00440839694656453,0.012290076335878336,0.012217557251910843,-0.0034998779296876864,0.002162841796875035,1.0016904296874989
3,0.00440839694656453,0.004656488549618809,0.01985114503817037,0.0008946533203123136,0.003139404296875035,0.997540039062499
4,0.01204198473282403,0.004656488549618809,-0.0030496183206082383,0.009683715820312314,0.002895263671875035,1.0053525390624989
5,-0.018492366412214134,0.01992366412213789,-0.010683206106867793,0.0028477783203123136,0.004115966796875035,1.0021787109374989
6,0.00440839694656453,-0.0029770992366407456,-0.0030496183206082383,0.0001622314453123136,0.003627685546875035,0.999004882812499
7,0.00440839694656453,-0.0029770992366407456,0.004583969465651289,-0.007406127929687686,0.0014304199218750351,0.996807617187499
8,-0.01085877862595458,-0.010610687022900273,-0.010683206106867793,0.0008946533203123136,-0.005161376953124965,1.0007138671874989
9,-0.01085877862595458,-0.010610687022900273,0.027484732824429925,-0.0005701904296876864,0.002406982421875035,1.0021787109374989
10,0.00440839694656453,-0.018244274809159827,-0.01831679389312732,0.013589965820312314,-0.0012551269531249649,1.0019345703124989
11,0.019675572519083584,-0.025877862595419354,0.012217557251910843,-0.013509643554687686,-0.0002785644531249649,0.999493164062499
12,-0.0032251908396950246,-0.018244274809159827,0.012217557251910843,0.0021153564453123136,-0.0012551269531249649,1.0029111328124989
13,-0.01085877862595458,0.004656488549618809,0.01985114503817037,0.0008946533203123136,0.003139404296875035,1.0026669921874989
14,0.00440839694656453,-0.010610687022900273,-0.010683206106867793,-0.0008143310546876864,-0.019077392578124963,1.0185361328124989
15,0.00440839694656453,-0.010610687022900273,0.004583969465651289,0.0028477783203123136,0.004848388671875035,1.0036435546874989
16,0.01204198473282403,0.004656488549618809,-0.010683206106867793,0.0004063720703123136,0.00020971679687503512,0.997784179687499
17,0.02730916030534314,0.012290076335878336,-0.0030496183206082383,-0.005208862304687686,-0.004917236328124965,0.998516601562499
18,0.019675572519083584,0.012290076335878336,0.012217557251910843,-0.0003260498046876864,0.002651123046875035,1.0026669921874989
19,-0.0032251908396950246,0.004656488549618809,0.004583969465651289,0.013345825195312314,0.002406982421875035,1.0024228515624989
20,-0.0032251908396950246,0.012290076335878336,-0.0030496183206082383,-0.0010584716796876864,-0.0010109863281249649,0.998516601562499
21,0.019675572519083584,-0.025877862595419354,0.012217557251910843,-0.0030115966796876864,-0.0002785644531249649,0.996319335937499
22,-0.0032251908396950246,-0.0029770992366407456,-0.0030496183206082383,0.0001622314453123136,0.002406982421875035,0.989727539062499
23,0.00440839694656453,-0.025877862595419354,0.012217557251910843,0.0004063720703123136,0.0011862792968750351,0.999737304687499
24,0.019675572519083584,0.012290076335878336,-0.010683206106867793,0.0004063720703123136,0.0011862792968750351,0.999737304687499
25,-0.0032251908396950246,-0.0029770992366407456,0.004583969465651289,0.009927856445312314,-0.0007668457031249649,1.0016904296874989
26,-0.0032251908396950246,-0.025877862595419354,0.004583969465651289,0.0013829345703123136,0.006557373046875035,0.997784179687499
27,0.00440839694656453,-0.018244274809159827,-0.0030496183206082383,0.0021153564453123136,0.019496826171875037,0.999737304687499
28,-0.0032251908396950246,0.004656488549618809,-0.0030496183206082383,-0.009847534179687686,0.004115966796875035,0.996319335937499
29,0.019675572519083584,-0.0029770992366407456,-0.010683206106867793,-0.0017908935546876864,-0.0007668457031249649,1.0046201171874989
30,-0.0032251908396950246,-0.010610687022900273,0.004583969465651289,0.0016270751953123136,0.00020971679687503512,1.0026669921874989
31,-0.01085877862595458,-0.010610687022900273,-0.010683206106867793,0.0011387939453123136,-0.001987548828124965,1.0021787109374989
32,-0.0032251908396950246,-0.0029770992366407456,0.004583969465651289,-0.0003260498046876864,-3.4423828124964875e-05,1.0024228515624989
33,-0.01085877862595458,0.004656488549618809,-0.0030496183206082383,-0.014486206054687686,-0.0002785644531249649,1.0077939453124989
34,-0.0032251908396950246,0.004656488549618809,-0.010683206106867793,0.0018712158203123136,0.00020971679687503512,1.0004697265624989
35,-0.01085877862595458,-0.0029770992366407456,0.01985114503817037,0.015787231445312314,0.0004538574218750351,0.998516601562499
36,0.01204198473282403,-0.0029770992366407456,-0.0030496183206082383,0.0021153564453123136,-0.0017434082031249649,1.0092587890624989
37,0.00440839694656453,-0.0029770992366407456,0.004583969465651289,0.005777465820312314,0.0009421386718750351,1.0158505859374989
38,0.01204198473282403,-0.0029770992366407456,-0.0030496183206082383,0.0008946533203123136,-0.004917236328124965,0.999249023437499
39,0.00440839694656453,-0.0029770992366407456,-0.010683206106867793,-0.0017908935546876864,0.00020971679687503512,0.999493164062499
40,-0.0032251908396950246,-0.010610687022900273,0.012217557251910843,-0.007161987304687686,0.0004538574218750351,0.997540039062499
41,0.00440839694656453,-0.0029770992366407456,0.01985114503817037,-0.0020350341796876864,-0.0010109863281249649,0.999004882812499
42,-0.01085877862595458,-0.0029770992366407456,-0.010683206106867793,-0.013021362304687686,0.002651123046875035,1.0012021484374989
43,-0.0032251908396950246,0.01992366412213789,0.004583969465651289,-0.0017908935546876864,-0.003208251953124965,0.998516601562499
44,0.00440839694656453,-0.010610687022900273,-0.0030496183206082383,0.0006505126953123136,0.003383544921875035,0.990704101562499
45,0.01204198473282403,-0.0029770992366407456,-0.010683206106867793,0.014810668945312314,0.00020971679687503512,1.0007138671874989
46,0.01204198473282403,-0.010610687022900273,0.012217557251910843,0.0016270751953123136,0.0004538574218750351,1.0002255859374989
47,0.00440839694656453,-0.0029770992366407456,0.012217557251910843,-0.0015467529296876864,0.005092529296875035,1.0036435546874989
48,0.01204198473282403,0.004656488549618809,0.01985114503817037,-0.0037440185546876864,-0.002964111328124965,1.0138974609374989
49,-0.01085877862595458,-0.010610687022900273,0.012217557251910843,0.0013829345703123136,0.0019187011718750351,0.999981445312499
50,-0.0032251908396950246,-0.0029770992366407456,0.004583969465651289,0.005045043945312314,0.002406982421875035,0.995586914062499
51,0.01204198473282403,-0.025877862595419354,0.01985114503817037,0.013589965820312314,-0.002719970703124965,0.998516601562499
52,-0.01085877862595458,0.01992366412213789,0.004583969465651289,-0.0010584716796876864,0.002406982421875035,1.0043759765624989
53,-0.0032251908396950246,-0.010610687022900273,0.01985114503817037,-0.0022791748046876864,0.002651123046875035,1.0077939453124989
54,0.01204198473282403,0.004656488549618809,0.01985114503817037,-0.005453002929687686,0.005092529296875035,0.999493164062499
55,-0.01085877862595458,0.012290076335878336,-0.0030496183206082383,0.004312622070312314,-3.4423828124964875e-05,1.0024228515624989
56,-0.01085877862595458,0.004656488549618809,-0.01831679389312732,-0.0005701904296876864,0.005824951171875035,0.998516601562499
57,-0.018492366412214134,0.004656488549618809,-0.010683206106867793,-0.013021362304687686,0.002162841796875035,0.993389648437499
58,0.00440839694656453,0.012290076335878336,0.004583969465651289,0.0021153564453123136,-0.0010109863281249649,0.989483398437499
59,0.00440839694656453,-0.0029770992366407456,0.01985114503817037,-0.0032557373046876864,0.0011862792968750351,0.996319335937499
60,-0.026125954198473633,-0.010610687022900273,0.004583969465651289,0.0035802001953123136,0.002651123046875035,1.0026669921874989
61,-0.0032251908396950246,0.004656488549618809,0.004583969465651289,0.0023594970703123136,0.0004538574218750351,1.0092587890624989
62,-0.01085877862595458,0.004656488549618809,-0.0030496183206082383,-0.0017908935546876864,0.0009421386718750351,1.0055966796874989
63,0.019675572519083584,0.012290076335878336,0.004583969465651289,-0.0022791748046876864,0.002162841796875035,0.996807617187499
64,0.019675572519083584,-0.010610687022900273,0.01985114503817037,-0.013997924804687686,-0.0014992675781249649,1.0187802734374989
65,-0.01085877862595458,-0.0029770992366407456,-0.010683206106867793,0.005045043945312314,-0.004673095703124965,1.0036435546874989
66,-0.01085877862595458,-0.0029770992366407456,0.012217557251910843,0.004800903320312314,-0.003696533203124965,0.997051757812499
67,0.00440839694656453,-0.0029770992366407456,-0.0030496183206082383,-0.0005701904296876864,-0.0005227050781249649,1.0121884765624989
68,-0.01085877862595458,0.004656488549618809,-0.01831679389312732,-0.0027674560546876864,0.0019187011718750351,1.0016904296874989
69,-0.01085877862595458,-0.0029770992366407456,0.004583969465651289,-0.009115112304687686,0.008754638671875035,1.0087705078124989
70,-0.0032251908396950246,0.004656488549618809,-0.010683206106867793,0.004800903320312314,0.002406982421875035,1.0014462890624989
71,-0.01085877862595458,0.012290076335878336,-0.0030496183206082383,0.004556762695312314,-0.004428955078124965,0.990459960937499
72,0.02730916030534314,-0.0029770992366407456,0.012217557251910843,-0.011556518554687686,-0.004917236328124965,1.0043759765624989
73,-0.0032251908396950246,-0.010610687022900273,0.004583969465651289,0.010660278320312314,-0.004184814453124965,0.995831054687499
74,-0.0032251908396950246,-0.0029770992366407456,0.004583969465651289,-0.012777221679687686,0.002406982421875035,0.998516601562499
75,-0.0032251908396950246,0.004656488549618809,-0.010683206106867793,-0.005453002929687686,-0.001987548828124965,0.999249023437499
76,0.01204198473282403,-0.010610687022900273,0.012217557251910843,-0.0027674560546876864,-0.0014992675781249649,1.0024228515624989
77,0.00440839694656453,-0.0029770992366407456,0.01985114503817037,-8.19091796876864e-05,0.004115966796875035,0.998516601562499
78,0.00440839694656453,-0.018244274809159827,0.004583969465651289,-0.013753784179687686,-0.002231689453124965,0.999249023437499
79,0.019675572519083584,0.004656488549618809,-0.010683206106867793,0.012125122070312314,0.002895263671875035,0.995831054687499
80,0.00440839694656453,-0.010610687022900273,-0.010683206106867793,-0.0037440185546876864,0.0011862792968750351,1.0024228515624989
81,0.01204198473282403,-0.0029770992366407456,0.01985114503817037,-0.0003260498046876864,-0.002719970703124965,1.0202451171874989
82,0.00440839694656453,-0.0029770992366407456,0.027484732824429925,-0.004476440429687686,0.0004538574218750351,0.991436523437499
83,-0.0032251908396950246,-0.018244274809159827,0.004583969465651289,0.0021153564453123136,-0.0002785644531249649,1.0038876953124989
84,0.01204198473282403,0.004656488549618809,-0.0030496183206082383,0.0035802001953123136,-0.0014992675781249649,0.994122070312499
85,-0.01085877862595458,-0.018244274809159827,-0.0030496183206082383,-0.005208862304687686,0.004360107421875035,1.0014462890624989
86,0.00440839694656453,-0.018244274809159827,0.004583969465651289,0.0006505126953123136,0.0006979980468750351,0.993389648437499
87,-0.0032251908396950246,-0.0029770992366407456,0.012217557251910843,-0.012044799804687686,0.002895263671875035,0.990704101562499
88,0.02730916030534314,0.012290076335878336,0.004583969465651289,0.010904418945312314,-0.001987548828124965,1.0026669921874989
89,-0.0032251908396950246,0.012290076335878336,0.012217557251910843,0.004556762695312314,0.005336669921875035,1.0109677734374989
90,0.00440839694656453,-0.010610687022900273,0.004583969465651289,0.0008946533203123136,0.008754638671875035,0.989971679687499
91,0.01204198473282403,0.012290076335878336,0.012217557251910843,0.0021153564453123136,-0.0010109863281249649,1.0036435546874989
92,-0.0032251908396950246,0.01992366412213789,-0.0030496183206082383,-0.0003260498046876864,0.003871826171875035,1.0033994140624989
93,0.01204198473282403,-0.0029770992366407456,0.01985114503817037,0.0026036376953123136,0.008754638671875035,0.998272460937499
94,0.019675572519083584,-0.0029770992366407456,-0.0030496183206082383,0.005289184570312314,0.0011862792968750351,1.0002255859374989
95,-0.0032251908396950246,-0.0029770992366407456,-0.0030496183206082383,0.015054809570312314,-0.005161376953124965,0.991192382812499
96,0.01204198473282403,0.012290076335878336,0.012217557251910843,0.016519653320312314,-0.003940673828124965,1.0004697265624989
97,-0.0032251908396950246,-0.0029770992366407456,-0.01831679389312732,0.0013829345703123136,0.002651123046875035,0.999981445312499
98,0.00440839694656453,0.004656488549618809,0.012217557251910843,-0.0015467529296876864,-0.0005227050781249649,1.0060849609374989
99,-0.01085877862595458,-0.0029770992366407456,-0.0030496183206082383,-0.012533081054687686,0.007289794921875035,1.0026669921874989
100,-0.0032251908396950246,-0.018244274809159827,0.012217557251910843,-0.011556518554687686,-0.002231689453124965,1.0038876953124989
101,-0.0032251908396950246,-0.0029770992366407456,-0.01831679389312732,-0.0005701904296876864,0.004848388671875035,0.994122070312499
102,-0.01085877862595458,-0.0029770992366407456,0.027484732824429925,0.0026036376953123136,-0.003208251953124965,1.0021787109374989
103,-0.0032251908396950246,-0.010610687022900273,0.004583969465651289,0.004800903320312314,-0.0014992675781249649,1.0070615234374989
104,0.01204198473282403,-0.010610687022900273,0.004583969465651289,0.0030919189453123136,0.003383544921875035,1.0007138671874989
105,0.019675572519083584,0.004656488549618809,0.004583969465651289,-0.013509643554687686,0.0004538574218750351,0.990948242187499
106,-0.0032251908396950246,-0.010610687022900273,-0.0030496183206082383,-0.012533081054687686,0.0009421386718750351,1.0024228515624989
107,-0.018492366412214134,0.012290076335878336,0.012217557251910843,0.0006505126953123136,-0.004184814453124965,0.999737304687499
108,-0.01085877862595458,-0.010610687022900273,0.004583969465651289,-0.0025233154296876864,0.003627685546875035,0.993633789062499
109,0.019675572519083584,-0.010610687022900273,0.012217557251910843,-0.0005701904296876864,-0.005405517578124965,0.995831054687499
110,-0.0032251908396950246,0.004656488549618809,0.004583969465651289,0.0023594970703123136,-0.0010109863281249649,1.0043759765624989
111,-0.0032251908396950246,-0.010610687022900273,0.004583969465651289,-0.004232299804687686,0.003383544921875035,1.0190244140624989
112,0.00440839694656453,-0.0029770992366407456,0.004583969465651289,-0.011312377929687686,0.0014304199218750351,0.996563476562499
113,0.01204198473282403,-0.0029770992366407456,0.01985114503817037,0.0021153564453123136,-0.0005227050781249649,1.0053525390624989
114,0.019675572519083584,-0.0029770992366407456,-0.0030496183206082383,-0.0017908935546876864,-0.0002785644531249649,1.0014462890624989
115,0.01204198473282403,0.01992366412213789,-0.0030496183206082383,-0.0005701904296876864,0.004604248046875035,0.998516601562499
116,-0.0032251908396950246,-0.010610687022900273,-0.01831679389312732,0.005289184570312314,0.002895263671875035,1.0063291015624989
117,0.01204198473282403,-0.010610687022900273,0.01985114503817037,-0.0005701904296876864,-0.001987548828124965,0.991192382812499
118,-0.0032251908396950246,0.004656488549618809,0.012217557251910843,-0.006429565429687686,0.0006979980468750351,0.999493164062499
119,-0.0032251908396950246,-0.0029770992366407456,-0.01831679389312732,0.0016270751953123136,0.0006979980468750351,0.991924804687499
120,-0.0032251908396950246,0.012290076335878336,0.004583969465651289,0.013101684570312314,0.002406982421875035,0.993145507812499
121,-0.0032251908396950246,-0.010610687022900273,-0.025950381679386875,-0.0008143310546876864,-0.004184814453124965,0.996075195312499
122,0.019675572519083584,0.012290076335878336,-0.0030496183206082383,0.015543090820312314,0.008022216796875035,1.0124326171874989
123,-0.01085877862595458,-0.0029770992366407456,-0.010683206106867793,0.010660278320312314,-0.0002785644531249649,0.996807617187499
124,-0.0032251908396950246,0.004656488549618809,0.027484732824429925,0.0021153564453123136,-0.003452392578124965,0.998028320312499
125,0.01204198473282403,-0.018244274809159827,0.01985114503817037,-0.0010584716796876864,-0.003452392578124965,0.996319335937499
126,-0.01085877862595458,0.012290076335878336,-0.01831679389312732,-0.0015467529296876864,0.0004538574218750351,0.990704101562499
127,0.00440839694656453,-0.018244274809159827,-0.0030496183206082383,-0.010091674804687686,-0.001987548828124965,0.999737304687499
128,-0.01085877862595458,0.01992366412213789,-0.0030496183206082383,-0.0010584716796876864,-0.0010109863281249649,1.0187802734374989
129,0.01204198473282403,0.004656488549618809,0.01985114503817037,-0.0020350341796876864,-0.002719970703124965,0.999493164062499
130,0.01204198473282403,0.012290076335878336,0.012217557251910843,-0.0020350341796876864,0.0004538574218750351,1.0014462890624989
131,0.03494274809160269,-0.018244274809159827,0.004583969465651289,-0.009359252929687686,0.005336669921875035,0.996563476562499
132,-0.01085877862595458,-0.010610687022900273,-0.0030496183206082383,0.0008946533203123136,-0.002475830078124965,0.995831054687499
133,-0.0032251908396950246,0.012290076335878336,-0.0030496183206082383,0.015298950195312314,0.002406982421875035,1.0148740234374989
134,-0.0032251908396950246,-0.0029770992366407456,-0.0030496183206082383,0.015054809570312314,0.0011862792968750351,0.992657226562499
135,0.00440839694656453,-0.0029770992366407456,0.004583969465651289,-0.0030115966796876864,0.004360107421875035,1.0053525390624989
136,0.01204198473282403,-0.018244274809159827,0.012217557251910843,-0.006917846679687686,-0.002964111328124965,1.0043759765624989
137,0.01204198473282403,-0.010610687022900273,0.004583969465651289,-0.004232299804687686,0.0004538574218750351,1.0024228515624989
138,0.01204198473282403,-0.0029770992366407456,0.004583969465651289,0.006265747070312314,0.0009421386718750351,1.0180478515624989
139,0.00440839694656453,-0.010610687022900273,0.012217557251910843,0.014322387695312314,0.00020971679687503512,0.998028320312499
140,-0.0032251908396950246,-0.010610687022900273,-0.01831679389312732,-0.0010584716796876864,-0.015171142578124965,1.0012021484374989
141,0.03494274809160269,0.012290076335878336,0.004583969465651289,0.016031372070312314,0.002895263671875035,0.999004882812499
142,0.019675572519083584,0.012290076335878336,0.012217557251910843,-0.005697143554687686,-0.001987548828124965,0.997784179687499
143,-0.0032251908396950246,-0.0029770992366407456,0.004583969465651289,-0.0017908935546876864,-0.002231689453124965,0.999004882812499
144,0.01204198473282403,-0.010610687022900273,-0.0030496183206082383,-0.0034998779296876864,0.0016745605468750351,0.995342773437499
145,0.00440839694656453,-0.0029770992366407456,0.004583969465651289,0.0021153564453123136,0.0016745605468750351,0.993145507812499
146,-0.0032251908396950246,0.012290076335878336,0.01985114503817037,0.0008946533203123136,0.0014304199218750351,0.999737304687499
147,-0.0032251908396950246,0.004656488549618809,0.027484732824429925,-0.0017908935546876864,-0.0002785644531249649,1.0031552734374989
148,0.00440839694656453,-0.0029770992366407456,-0.0030496183206082383,0.0008946533203123136,0.006313232421875035,1.0038876953124989
149,-0.01085877862595458,0.004656488549618809,0.004583969465651289,-0.0032557373046876864,-0.0007668457031249649,1.0009580078124989
150,-0.0032251908396950246,0.012290076335878336,-0.01831679389312732,0.015298950195312314,-0.0007668457031249649,1.0016904296874989
151,-0.01085877862595458,0.03519083969465697,0.004583969465651289,-0.0017908935546876864,0.005336669921875035,1.0038876953124989
152,0.00440839694656453,0.02755725190839743,0.01985114503817037,-0.0013026123046876864,-0.0002785644531249649,1.0007138671874989
153,-0.018492366412214134,-0.0029770992366407456,0.012217557251910843,0.016031372070312314,-0.004917236328124965,1.0029111328124989
154,0.00440839694656453,0.004656488549618809,-0.01831679389312732,0.0038243408203123136,-0.0010109863281249649,0.995342773437499
155,-0.01085877862595458,0.012290076335878336,0.004583969465651289,0.0004063720703123136,0.0019187011718750351,0.985577148437499
156,0.01204198473282403,-0.03351145038167891,0.004583969465651289,-0.0022791748046876864,0.006557373046875035,1.0014462890624989
157,0.00440839694656453,-0.010610687022900273,0.012217557251910843,-0.007406127929687686,0.0019187011718750351,0.997540039062499
158,-0.0032251908396950246,-0.018244274809159827,-0.0030496183206082383,0.0013829345703123136,0.002406982421875035,0.995586914062499
159,0.00440839694656453,-0.018244274809159827,0.012217557251910843,-0.014486206054687686,-0.0010109863281249649,0.998760742187499
160,0.019675572519083584,-0.018244274809159827,0.01985114503817037,-0.012288940429687686,-0.0017434082031249649,1.0019345703124989
161,0.00440839694656453,0.004656488549618809,0.004583969465651289,-0.004720581054687686,-0.003696533203124965,0.998028320312499
162,-0.0032251908396950246,-0.0029770992366407456,-0.0030496183206082383,-0.0005701904296876864,-3.4423828124964875e-05,1.0019345703124989
163,0.00440839694656453,0.004656488549618809,-0.010683206106867793,0.016519653320312314,0.005336669921875035,0.996319335937499
164,0.02730916030534314,-0.0029770992366407456,0.012217557251910843,-0.0032557373046876864,0.005580810546875035,1.0004697265624989
165,-0.0032251908396950246,0.012290076335878336,0.004583969465651289,-0.0020350341796876864,0.003627685546875035,1.0043759765624989
166,0.00440839694656453,-0.0029770992366407456,0.012217557251910843,-0.0022791748046876864,0.004848388671875035,1.0029111328124989
167,0.01204198473282403,-0.010610687022900273,0.012217557251910843,-0.0010584716796876864,-0.005405517578124965,1.0151181640624989
168,0.00440839694656453,0.012290076335878336,-0.010683206106867793,-0.0030115966796876864,-0.002719970703124965,1.0026669921874989
169,-0.0032251908396950246,-0.010610687022900273,-0.010683206106867793,-0.013753784179687686,0.0006979980468750351,0.999004882812499
170,-0.0032251908396950246,-0.010610687022900273,0.004583969465651289,-0.0027674560546876864,-0.0002785644531249649,0.997784179687499
171,-0.01085877862595458,0.012290076335878336,0.004583969465651289,0.016031372070312314,-0.0010109863281249649,1.0187802734374989
172,-0.0032251908396950246,-0.010610687022900273,-0.010683206106867793,-0.0005701904296876864,-0.0005227050781249649,0.995342773437499
173,0.01204198473282403,-0.010610687022900273,0.012217557251910843,0.0035802001953123136,-0.0010109863281249649,0.993877929687499
174,-0.01085877862595458,0.012290076335878336,0.012217557251910843,-0.0015467529296876864,0.0009421386718750351,1.0043759765624989
175,0.00440839694656453,0.004656488549618809,0.004583969465651289,0.005045043945312314,0.002895263671875035,1.0007138671874989
176,-0.0032251908396950246,0.004656488549618809,0.004583969465651289,0.0001622314453123136,0.003139404296875035,0.990215820312499
177,-0.018492366412214134,-0.010610687022900273,-0.0030496183206082383,0.0008946533203123136,-0.005161376953124965,1.0124326171874989
178,-0.0032251908396950246,0.02755725190839743,0.004583969465651289,0.0001622314453123136,0.0006979980468750351,1.0016904296874989
179,0.00440839694656453,0.004656488549618809,-0.0030496183206082383,0.0033360595703123136,0.003627685546875035,1.0156064453124989
180,-0.0032251908396950246,-0.010610687022900273,-0.0030496183206082383,-0.012288940429687686,0.003139404296875035,1.0007138671874989
181,-0.01085877862595458,-0.010610687022900273,-0.010683206106867793,0.0011387939453123136,-0.0007668457031249649,0.996319335937499
182,-0.01085877862595458,0.02755725190839743,0.01985114503817037,-0.014486206054687686,0.003139404296875035,0.999981445312499
183,0.00440839694656453,-0.0029770992366407456,-0.0030496183206082383,0.0004063720703123136,-0.0014992675781249649,0.995098632812499
184,0.00440839694656453,-0.0029770992366407456,0.004583969465651289,0.005289184570312314,0.0011862792968750351,0.993389648437499
185,-0.0032251908396950246,0.01992366412213789,0.004583969465651289,-0.0013026123046876864,0.00020971679687503512,1.0012021484374989
186,0.00440839694656453,0.004656488549618809,0.004583969465651289,-0.005453002929687686,0.004115966796875035,0.996563476562499
187,0.00440839694656453,-0.010610687022900273,0.012217557251910843,-0.0005701904296876864,0.004360107421875035,1.0024228515624989
188,-0.0032251908396950246,0.01992366412213789,-0.0030496183206082383,-0.014486206054687686,0.00020971679687503512,1.0014462890624989
189,0.00440839694656453,0.012290076335878336,0.004583969465651289,0.012125122070312314,-0.012485595703124965,1.0043759765624989
190,0.02730916030534314,0.004656488549618809,-0.0030496183206082383,0.004556762695312314,0.009487060546875035,0.989483398437499
191,-0.01085877862595458,0.012290076335878336,-0.010683206106867793,0.005289184570312314,0.005824951171875035,0.999249023437499
192,0.019675572519083584,-0.0029770992366407456,-0.0030496183206082383,-0.003988159179687686,-0.0002785644531249649,1.0048642578124989
193,-0.0032251908396950246,-0.0029770992366407456,-0.0030496183206082383,-0.0005701904296876864,-0.0007668457031249649,0.998272460937499
194,0.01204198473282403,-0.0029770992366407456,0.004583969465651289,0.0001622314453123136,0.007533935546875035,1.0173154296874989
195,0.00440839694656453,-0.010610687022900273,0.004583969465651289,-0.0015467529296876864,0.002162841796875035,0.996075195312499
196,0.00440839694656453,-0.0029770992366407456,-0.01831679389312732,0.0030919189453123136,0.002406982421875035,1.0016904296874989
197,-0.01085877862595458,0.004656488549618809,-0.0030496183206082383,-0.009847534179687686,0.0019187011718750351,1.0009580078124989
198,-0.0032251908396950246,0.004656488549618809,-0.010683206106867793,-0.012533081054687686,-0.0012551269531249649,1.0012021484374989
199,-0.0032251908396950246,0.004656488549618809,-0.0030496183206082383,0.006021606445312314,-0.003208251953124965,1.0024228515624989
200,-0.0032251908396950246,0.012290076335878336,0.01985114503817037,0.0028477783203123136,0.003871826171875035,0.989239257812499
201,-0.0032251908396950246,0.004656488549618809,0.027484732824429925,0.011880981445312314,0.007289794921875035,0.998028320312499
202,0.00440839694656453,-0.010610687022900273,0.012217557251910843,-0.005453002929687686,0.005336669921875035,1.0051083984374989
203,0.00440839694656453,-0.0029770992366407456,-0.0030496183206082383,-8.19091796876864e-05,0.003627685546875035,0.990948242187499
204,0.00440839694656453,0.004656488549618809,-0.0030496183206082383,0.011392700195312314,0.008266357421875035,1.0038876953124989
205,0.00440839694656453,-0.010610687022900273,-0.0030496183206082383,-0.0022791748046876864,-0.002231689453124965,0.997540039062499
206,-0.01085877862595458,0.004656488549618809,0.004583969465651289,0.016519653320312314,0.002651123046875035,1.0175595703124989
207,0.00440839694656453,0.03519083969465697,0.012217557251910843,-0.0027674560546876864,0.0004538574218750351,1.0024228515624989
208,0.00440839694656453,-0.010610687022900273,0.012217557251910843,-0.005208862304687686,0.0006979980468750351,1.0004697265624989
209,0.01204198473282403,-0.0029770992366407456,0.004583969465651289,0.0021153564453123136,-0.003696533203124965,0.999493164062499
210,0.01204198473282403,0.012290076335878336,0.027484732824429925,0.0001622314453123136,-0.002231689453124965,1.0026669921874989
211,-0.0032251908396950246,0.01992366412213789,0.004583969465651289,0.0035802001953123136,0.002406982421875035,0.991680664062499
212,-0.01085877862595458,0.012290076335878336,0.012217557251910843,-0.0032557373046876864,0.005092529296875035,0.999981445312499
213,0.019675572519083584,-0.010610687022900273,-0.0030496183206082383,-0.0005701904296876864,0.0011862792968750351,0.998028320312499
214,-0.0032251908396950246,0.004656488549618809,-0.0030496183206082383,-0.0005701904296876864,0.002651123046875035,0.995098632812499
215,0.00440839694656453,0.012290076335878336,-0.0030496183206082383,-0.010824096679687686,0.00020971679687503512,0.995831054687499
216,-0.0032251908396950246,0.004656488549618809,0.012217557251910843,0.0023594970703123136,0.002162841796875035,1.0024228515624989
217,-0.01085877862595458,0.012290076335878336,0.012217557251910843,-0.013997924804687686,0.004848388671875035,0.995586914062499
218,0.01204198473282403,-0.010610687022900273,0.012217557251910843,0.0008946533203123136,-0.0017434082031249649,0.994122070312499
219,-0.01085877862595458,-0.010610687022900273,0.004583969465651289,-0.004232299804687686,0.0014304199218750351,1.0016904296874989
220,-0.0032251908396950246,0.004656488549618809,0.01985114503817037,0.016031372070312314,-0.002231689453124965,1.0038876953124989
221,-0.0032251908396950246,0.004656488549618809,-0.010683206106867793,-0.0010584716796876864,0.003383544921875035,0.997784179687499
222,0.00440839694656453,0.004656488549618809,0.012217557251910843,0.0016270751953123136,0.00020971679687503512,0.993633789062499
223,0.01204198473282403,-0.018244274809159827,-0.010683206106867793,-0.0013026123046876864,0.0006979980468750351,0.999004882812499
224,-0.018492366412214134,-0.0029770992366407456,-0.010683206106867793,0.006509887695312314,0.0019187011718750351,0.999249023437499
225,-0.018492366412214134,-0.0029770992366407456,0.004583969465651289,0.0006505126953123136,-0.0007668457031249649,0.997540039062499
226,0.019675572519083584,0.004656488549618809,-0.0030496183206082383,-0.006429565429687686,0.003383544921875035,0.990948242187499
227,-0.018492366412214134,0.004656488549618809,-0.0030496183206082383,0.0011387939453123136,0.0004538574218750351,0.996563476562499
228,-0.018492366412214134,0.004656488549618809,-0.0030496183206082383,0.0035802001953123136,-0.002719970703124965,1.0016904296874989
229,-0.0032251908396950246,0.012290076335878336,0.012217557251910843,-0.012044799804687686,-0.0012551269531249649,1.0070615234374989
230,0.019675572519083584,-0.0029770992366407456,0.01985114503817037,-0.0020350341796876864,0.003871826171875035,1.0058408203124989
231,0.01204198473282403,-0.0029770992366407456,-0.025950381679386875,-0.0013026123046876864,0.003383544921875035,1.0119443359374989
232,0.00440839694656453,-0.018244274809159827,0.004583969465651289,-0.004720581054687686,0.002406982421875035,0.991192382812499
233,0.01204198473282403,0.004656488549618809,-0.01831679389312732,-0.011312377929687686,0.00020971679687503512,1.0009580078124989
234,-0.01085877862595458,-0.010610687022900273,0.004583969465651289,0.0026036376953123136,-0.0005227050781249649,0.993633789062499
235,-0.0032251908396950246,-0.018244274809159827,0.03511832061068945,-0.0013026123046876864,0.0004538574218750351,0.998760742187499
236,0.00440839694656453,0.004656488549618809,0.004583969465651289,-0.0005701904296876864,-0.0017434082031249649,1.0014462890624989
237,-0.0032251908396950246,-0.018244274809159827,0.012217557251910843,0.0021153564453123136,0.005092529296875035,0.999004882812499
238,0.00440839694656453,0.012290076335878336,-0.0030496183206082383,-0.0030115966796876864,0.00020971679687503512,1.0016904296874989
239,0.019675572519083584,-0.0029770992366407456,-0.010683206106867793,-0.005453002929687686,0.0004538574218750351,1.0021787109374989
240,-0.0032251908396950246,0.02755725190839743,0.012217557251910843,0.0008946533203123136,-0.005405517578124965,0.999981445312499
241,-0.01085877862595458,-0.0029770992366407456,-0.0030496183206082383,-0.0037440185546876864,0.0019187011718750351,0.992168945312499
242,0.00440839694656453,-0.0029770992366407456,-0.0030496183206082383,-0.0037440185546876864,-0.004428955078124965,1.0051083984374989
243,0.00440839694656453,-0.0029770992366407456,0.004583969465651289,-0.0027674560546876864,0.003871826171875035,1.0192685546874989
244,0.00440839694656453,-0.0029770992366407456,-0.010683206106867793,-0.012777221679687686,-0.001987548828124965,0.997051757812499
245,-0.01085877862595458,-0.018244274809159827,-0.01831679389312732,0.0013829345703123136,-0.0012551269531249649,0.994854492187499
246,0.00440839694656453,-0.0029770992366407456,-0.010683206106867793,0.0038243408203123136,0.00020971679687503512,0.989971679687499
247,0.01204198473282403,-0.0029770992366407456,0.012217557251910843,-0.004476440429687686,0.002162841796875035,1.0016904296874989
248,-0.018492366412214134,-0.0029770992366407456,0.004583969465651289,-0.004964721679687686,0.004115966796875035,1.0038876953124989
249,0.01204198473282403,-0.010610687022900273,0.004583969465651289,-0.012044799804687686,0.0011862792968750351,0.996075195312499
250,0.01204198473282403,0.012290076335878336,-0.0030496183206082383,0.004556762695312314,0.0014304199218750351,0.999737304687499
251,0.00440839694656453,0.004656488549618809,0.012217557251910843,0.0004063720703123136,0.002651123046875035,0.999737304687499
252,0.01204198473282403,0.01992366412213789,-0.0030496183206082383,-0.0020350341796876864,0.006313232421875035,1.0041318359374989
253,0.02730916030534314,-0.0029770992366407456,0.012217557251910843,-0.013509643554687686,0.002651123046875035,0.994610351562499
254,0.01204198473282403,0.012290076335878336,0.01985114503817037,-0.0025233154296876864,-0.0002785644531249649,1.0007138671874989
255,0.00440839694656453,0.012290076335878336,0.012217557251910843,0.014078247070312314,0.0009421386718750351,0.989239257812499
256,-0.0032251908396950246,0.004656488549618809,0.004583969465651289,0.0033360595703123136,0.005580810546875035,1.0114560546874989
257,0.01204198473282403,-0.010610687022900273,-0.01831679389312732,0.0026036376953123136,-0.002964111328124965,0.999249023437499
258,0.00440839694656453,0.004656488549618809,-0.0030496183206082383,0.0038243408203123136,-0.0010109863281249649,0.996075195312499
259,0.00440839694656453,-0.0029770992366407456,-0.010683206106867793,-0.0005701904296876864,0.0009421386718750351,1.0060849609374989
260,-0.0032251908396950246,-0.0029770992366407456,0.012217557251910843,-0.0025233154296876864,0.0004538574218750351,0.994366210937499
261,0.02730916030534314,-0.025877862595419354,0.004583969465651289,0.016519653320312314,0.003139404296875035,0.999004882812499
262,-0.0032251908396950246,0.004656488549618809,-0.010683206106867793,-0.0020350341796876864,0.002895263671875035,0.997784179687499
263,-0.0032251908396950246,-0.0029770992366407456,0.004583969465651289,0.004800903320312314,-0.0012551269531249649,1.0046201171874989
264,-0.01085877862595458,0.01992366412213789,-0.0030496183206082383,0.0021153564453123136,-0.003452392578124965,1.0029111328124989
265,0.00440839694656453,0.004656488549618809,0.004583969465651289,-0.008138549804687686,-0.004917236328124965,0.992657226562499
266,0.00440839694656453,-0.0029770992366407456,0.012217557251910843,0.0006505126953123136,0.007045654296875035,0.997051757812499
267,-0.01085877862595458,-0.010610687022900273,0.027484732824429925,0.0013829345703123136,0.006313232421875035,0.999493164062499
268,0.01204198473282403,-0.0029770992366407456,-0.010683206106867793,0.0028477783203123136,-0.0005227050781249649,0.989239257812499
269,0.019675572519083584,-0.0029770992366407456,0.004583969465651289,0.0018712158203123136,-0.0014992675781249649,1.0124326171874989
270,-0.01085877862595458,-0.0029770992366407456,0.004583969465651289,0.015298950195312314,-0.0017434082031249649,0.994854492187499
271,-0.0032251908396950246,0.004656488549618809,-0.0030496183206082383,-0.0010584716796876864,-0.003696533203124965,1.0036435546874989
272,-0.0032251908396950246,0.004656488549618809,0.004583969465651289,-8.19091796876864e-05,0.002651123046875035,1.0002255859374989
273,-0.01085877862595458,-0.0029770992366407456,0.012217557251910843,-0.0010584716796876864,-0.005161376953124965,0.994854492187499
274,-0.018492366412214134,0.004656488549618809,0.004583969465651289,0.0026036376953123136,-0.0017434082031249649,1.0007138671874989
275,-0.0032251908396950246,-0.0029770992366407456,-0.010683206106867793,0.0006505126953123136,0.0004538574218750351,1.0041318359374989
276,0.00440839694656453,-0.0029770992366407456,0.012217557251910843,0.004068481445312314,0.002651123046875035,0.996807617187499
277,0.00440839694656453,-0.0029770992366407456,0.004583969465651289,-0.006429565429687686,0.008754638671875035,1.0043759765624989
278,0.00440839694656453,0.004656488549618809,0.004583969465651289,-0.0027674560546876864,-0.001987548828124965,1.0007138671874989
279,-0.0032251908396950246,0.004656488549618809,0.012217557251910843,0.005289184570312314,-0.0002785644531249649,0.995342773437499
280,-0.026125954198473633,0.004656488549618809,0.004583969465651289,0.013589965820312314,-0.0002785644531249649,1.0014462890624989
281,-0.0032251908396950246,-0.010610687022900273,0.004583969465651289,-0.0003260498046876864,-0.0012551269531249649,0.996563476562499
282,0.00440839694656453,0.004656488549618809,0.012217557251910843,-0.006429565429687686,-0.004673095703124965,1.0107236328124989
283,-0.018492366412214134,0.004656488549618809,0.004583969465651289,-0.011800659179687686,0.002162841796875035,1.0014462890624989
284,-0.01085877862595458,0.004656488549618809,0.004583969465651289,0.004068481445312314,-0.0014992675781249649,0.998028320312499
285,-0.0032251908396950246,-0.010610687022900273,0.004583969465651289,0.012369262695312314,0.0009421386718750351,0.999981445312499
286,-0.0032251908396950246,-0.025877862595419354,-0.0030496183206082383,0.011880981445312314,-0.001987548828124965,1.0021787109374989
287,0.01204198473282403,-0.010610687022900273,0.012217557251910843,0.0008946533203123136,0.002162841796875035,1.0024228515624989
288,0.00440839694656453,0.01992366412213789,0.01985114503817037,-0.0008143310546876864,0.0014304199218750351,1.0009580078124989
289,-0.0032251908396950246,0.004656488549618809,0.004583969465651289,0.016275512695312314,-0.0012551269531249649,0.996319335937499
290,0.00440839694656453,-0.0029770992366407456,0.004583969465651289,0.0021153564453123136,-0.0002785644531249649,1.0043759765624989
291,0.00440839694656453,-0.010610687022900273,0.004583969465651289,-0.0005701904296876864,-0.002719970703124965,1.0138974609374989
292,0.00440839694656453,-0.0029770992366407456,-0.0030496183206082383,-0.0017908935546876864,-0.003208251953124965,1.0026669921874989
293,-0.0032251908396950246,-0.025877862595419354,0.004583969465651289,0.0008946533203123136,-0.0007668457031249649,0.989971679687499
294,0.019675572519083584,-0.0029770992366407456,-0.0030496183206082383,0.0033360595703123136,-0.0002785644531249649,0.991680664062499
295,0.00440839694656453,0.004656488549618809,0.004583969465651289,0.0008946533203123136,0.002651123046875035,1.0048642578124989
296,-0.018492366412214134,-0.0029770992366407456,0.01985114503817037,-0.012533081054687686,-0.005161376953124965,0.994366210937499
297,0.01204198473282403,0.004656488549618809,-0.01831679389312732,-0.0005701904296876864,-0.0005227050781249649,0.990459960937499
298,-0.01085877862595458,0.004656488549618809,-0.0030496183206082383,-0.014242065429687686,0.00020971679687503512,1.0058408203124989
299,0.00440839694656453,0.004656488549618809,0.004583969465651289,-0.0010584716796876864,-0.0002785644531249649,0.996075195312499
300,-0.0032251908396950246,-0.0029770992366407456,0.012217557251910843,-0.012288940429687686,0.0004538574218750351,0.992413085937499
301,-0.01085877862595458,0.012290076335878336,0.01985114503817037,0.004068481445312314,-0.0012551269531249649,1.0021787109374989
302,0.01204198473282403,-0.018244274809159827,-0.010683206106867793,0.005289184570312314,-3.4423828124964875e-05,0.999737304687499
303,-0.01085877862595458,-0.0029770992366407456,0.012217557251910843,0.0008946533203123136,0.002406982421875035,0.997784179687499
304,0.00440839694656453,0.004656488549618809,-0.0030496183206082383,-0.0013026123046876864,0.003627685546875035,1.0038876953124989
305,-0.0032251908396950246,-0.010610687022900273,0.004583969465651289,-0.006673706054687686,0.005824951171875035,0.999493164062499
306,0.019675572519083584,-0.0029770992366407456,0.004583969465651289,0.013345825195312314,0.005580810546875035,1.0007138671874989
307,-0.01085877862595458,-0.010610687022900273,0.01985114503817037,0.0028477783203123136,-0.0014992675781249649,1.0031552734374989
308,-0.0032251908396950246,0.004656488549618809,-0.0030496183206082383,0.0018712158203123136,-0.004673095703124965,0.997784179687499
309,0.00440839694656453,-0.010610687022900273,-0.010683206106867793,-0.012533081054687686,-0.001987548828124965,1.0009580078124989
310,0.01204198473282403,0.004656488549618809,-0.010683206106867793,-0.0022791748046876864,0.014614013671875035,1.0065732421874989
311,0.01204198473282403,-0.0029770992366407456,0.004583969465651289,-0.004964721679687686,0.0016745605468750351,1.0087705078124989
312,-0.0032251908396950246,0.004656488549618809,0.004583969465651289,-0.013753784179687686,0.0011862792968750351,1.0190244140624989
313,-0.0032251908396950246,-0.010610687022900273,0.004583969465651289,0.004556762695312314,0.003627685546875035,1.0031552734374989
314,0.019675572519083584,0.01992366412213789,-0.0030496183206082383,0.0033360595703123136,0.002162841796875035,0.991436523437499
315,-0.01085877862595458,0.004656488549618809,-0.0030496183206082383,0.0008946533203123136,0.0011862792968750351,1.0029111328124989
316,-0.0032251908396950246,-0.0029770992366407456,0.012217557251910843,0.014810668945312314,0.002162841796875035,0.995342773437499
317,-0.0032251908396950246,0.004656488549618809,0.004583969465651289,-0.0020350341796876864,0.004360107421875035,1.0036435546874989
318,-0.01085877862595458,-0.0029770992366407456,-0.01831679389312732,0.0026036376953123136,-0.003696533203124965,0.998516601562499
319,-0.01085877862595458,0.012290076335878336,0.004583969465651289,-0.0013026123046876864,0.003383544921875035,0.997295898437499
320,-0.01085877862595458,0.004656488549618809,0.012217557251910843,0.0018712158203123136,-0.005649658203124965,1.0033994140624989
321,-0.0032251908396950246,-0.0029770992366407456,-0.010683206106867793,-0.013997924804687686,0.0009421386718750351,1.0002255859374989
322,-0.01085877862595458,-0.018244274809159827,0.004583969465651289,-0.011068237304687686,0.0006979980468750351,0.990459960937499
323,0.00440839694656453,0.012290076335878336,0.004583969465651289,0.004068481445312314,0.0019187011718750351,0.995098632812499
324,-0.0032251908396950246,0.02755725190839743,-0.010683206106867793,-0.0017908935546876864,-0.002719970703124965,0.999004882812499
325,-0.01085877862595458,0.01992366412213789,-0.0030496183206082383,0.0021153564453123136,-0.003940673828124965,1.0014462890624989
326,0.00440839694656453,0.01992366412213789,0.004583969465651289,-0.005208862304687686,0.003383544921875035,0.993877929687499
327,0.00440839694656453,0.004656488549618809,-0.010683206106867793,-0.014242065429687686,0.0014304199218750351,0.994122070312499
328,0.00440839694656453,-0.018244274809159827,-0.010683206106867793,0.0004063720703123136,0.007045654296875035,1.0151181640624989
329,-0.0032251908396950246,0.01992366412213789,0.004583969465651289,-0.0008143310546876864,0.0006979980468750351,0.990704101562499
330,-0.0032251908396950246,0.004656488549618809,0.012217557251910843,0.0006505126953123136,0.0014304199218750351,0.999737304687499
331,-0.0032251908396950246,-0.0029770992366407456,-0.010683206106867793,0.0023594970703123136,-0.0010109863281249649,1.0170712890624989
332,-0.0032251908396950246,0.004656488549618809,0.004583969465651289,-0.0025233154296876864,-0.0002785644531249649,0.998272460937499
333,-0.0032251908396950246,-0.010610687022900273,0.004583969465651289,-0.0003260498046876864,-3.4423828124964875e-05,0.995098632812499
334,0.00440839694656453,0.012290076335878336,0.012217557251910843,-0.007650268554687686,-0.0010109863281249649,1.0114560546874989
335,-0.01085877862595458,-0.0029770992366407456,-0.0030496183206082383,0.006021606445312314,0.003871826171875035,0.994366210937499
336,0.00440839694656453,0.004656488549618809,0.004583969465651289,0.007974731445312314,-0.0002785644531249649,0.999004882812499
337,0.00440839694656453,-0.0029770992366407456,-0.010683206106867793,0.0008946533203123136,0.002651123046875035,0.994122070312499
338,0.00440839694656453,0.012290076335878336,0.004583969465651289,-0.0017908935546876864,-0.003452392578124965,0.992413085937499
339,-0.01085877862595458,-0.0029770992366407456,-0.0030496183206082383,-0.006429565429687686,0.0009421386718750351,0.989971679687499
340,0.00440839694656453,0.004656488549618809,-0.010683206106867793,0.016031372070312314,-0.003208251953124965,0.995342773437499
341,0.00440839694656453,-0.025877862595419354,0.01985114503817037,0.005289184570312314,0.003871826171875035,0.997295898437499
342,0.00440839694656453,0.004656488549618809,-0.0030496183206082383,0.005045043945312314,0.0004538574218750351,1.0138974609374989
343,0.01204198473282403,-0.0029770992366407456,-0.0030496183206082383,0.015543090820312314,-0.003696533203124965,1.0002255859374989
344,0.00440839694656453,-0.010610687022900273,-0.010683206106867793,-0.0013026123046876864,0.004115966796875035,1.0014462890624989
345,0.00440839694656453,0.012290076335878336,-0.0030496183206082383,-0.003988159179687686,0.002895263671875035,0.997784179687499
346,0.019675572519083584,-0.0029770992366407456,0.01985114503817037,0.0004063720703123136,0.006069091796875035,1.0036435546874989
347,0.019675572519083584,0.012290076335878336,0.01985114503817037,-0.0017908935546876864,-0.005649658203124965,0.998272460937499
348,0.00440839694656453,-0.025877862595419354,0.004583969465651289,-0.013509643554687686,0.0011862792968750351,1.0009580078124989
349,-0.0032251908396950246,-0.018244274809159827,0.01985114503817037,-0.0015467529296876864,-0.0014992675781249649,0.989971679687499
350,-0.0032251908396950246,-0.0029770992366407456,-0.01831679389312732,-0.0034998779296876864,0.005092529296875035,0.997051757812499
351,-0.01085877862595458,0.004656488549618809,0.004583969465651289,-0.0013026123046876864,0.005580810546875035,1.0041318359374989
352,-0.0032251908396950246,-0.010610687022900273,0.012217557251910843,-0.012044799804687686,0.003627685546875035,0.999493164062499
353,-0.01085877862595458,0.004656488549618809,0.004583969465651289,0.0023594970703123136,0.002162841796875035,1.0012021484374989
354,-0.0032251908396950246,-0.0029770992366407456,-0.0030496183206082383,-0.012044799804687686,0.002406982421875035,1.0031552734374989
355,-0.0032251908396950246,0.012290076335878336,-0.010683206106867793,0.0018712158203123136,-0.0007668457031249649,1.0026669921874989
356,0.02730916030534314,-0.010610687022900273,0.012217557251910843,-0.0013026123046876864,-0.015171142578124965,1.0029111328124989
357,-0.0032251908396950246,0.012290076335878336,-0.0030496183206082383,-0.005453002929687686,-0.0012551269531249649,0.997784179687499
358,0.00440839694656453,0.004656488549618809,0.004583969465651289,-0.0005701904296876864,-0.0005227050781249649,0.997784179687499
359,-0.0032251908396950246,0.012290076335878336,-0.0030496183206082383,-0.005941284179687686,0.0019187011718750351,0.995831054687499
360,0.00440839694656453,-0.0029770992366407456,0.01985114503817037,-0.0034998779296876864,0.0004538574218750351,1.0187802734374989
361,0.00440839694656453,0.012290076335878336,-0.0030496183206082383,-0.014486206054687686,0.004115966796875035,0.998272460937499
362,0.00440839694656453,-0.010610687022900273,0.01985114503817037,0.0038243408203123136,-0.002231689453124965,0.998028320312499
363,0.00440839694656453,0.004656488549618809,0.012217557251910843,-0.0034998779296876864,-0.0012551269531249649,0.999004882812499
364,0.00440839694656453,-0.010610687022900273,0.012217557251910843,-8.19091796876864e-05,-0.0012551269531249649,1.0048642578124989
365,-0.018492366412214134,0.012290076335878336,-0.0030496183206082383,-0.0022791748046876864,0.004115966796875035,0.998760742187499
366,-0.0032251908396950246,0.004656488549618809,0.004583969465651289,0.0033360595703123136,-0.0012551269531249649,0.995342773437499
367,0.01204198473282403,-0.010610687022900273,-0.0030496183206082383,-0.0003260498046876864,-0.0010109863281249649,0.997784179687499
368,-0.0032251908396950246,0.004656488549618809,-0.010683206106867793,-0.004720581054687686,0.0016745605468750351,1.0026669921874989
369,-0.0032251908396950246,0.01992366412213789,-0.0030496183206082383,0.016031372070312314,-0.0007668457031249649,1.0012021484374989
370,-0.0032251908396950246,-0.018244274809159827,-0.0030496183206082383,0.016519653320312314,0.004604248046875035,1.0019345703124989
371,0.01204198473282403,0.01992366412213789,0.004583969465651289,-0.0037440185546876864,-0.001987548828124965,0.998516601562499
372,0.019675572519083584,-0.010610687022900273,0.012217557251910843,-0.012044799804687686,-0.003696533203124965,0.997540039062499
373,0.02730916030534314,0.004656488549618809,-0.0030496183206082383,0.0004063720703123136,0.005336669921875035,1.0024228515624989
374,0.019675572519083584,0.012290076335878336,-0.0030496183206082383,0.006265747070312314,0.007289794921875035,0.995586914062499
375,-0.0032251908396950246,-0.0029770992366407456,-0.01831679389312732,0.0011387939453123136,-0.0005227050781249649,0.989727539062499
376,0.00440839694656453,0.012290076335878336,0.004583969465651289,0.0021153564453123136,0.007045654296875035,1.0026669921874989
377,-0.01085877862595458,0.004656488549618809,0.004583969465651289,-0.0015467529296876864,-0.001987548828124965,1.0058408203124989
378,0.00440839694656453,-0.010610687022900273,0.012217557251910843,0.015054809570312314,0.0009421386718750351,0.999493164062499
379,-0.0032251908396950246,-0.010610687022900273,-0.0030496183206082383,-0.005697143554687686,0.0009421386718750351,1.0021787109374989
380,-0.0032251908396950246,-0.0029770992366407456,-0.0030496183206082383,0.0026036376953123136,-0.003696533203124965,1.0200009765624989
381,0.00440839694656453,0.004656488549618809,0.027484732824429925,-0.0005701904296876864,0.00020971679687503512,0.989727539062499
382,-0.0032251908396950246,-0.0029770992366407456,-0.0030496183206082383,-0.013021362304687686,-3.4423828124964875e-05,0.998516601562499
383,0.00440839694656453,-0.0029770992366407456,0.027484732824429925,0.0001622314453123136,-0.0017434082031249649,0.999004882812499
384,0.00440839694656453,0.004656488549618809,0.004583969465651289,-0.0003260498046876864,-0.003452392578124965,0.994366210937499
385,0.01204198473282403,0.012290076335878336,-0.0030496183206082383,-0.010091674804687686,-3.4423828124964875e-05,1.0026669921874989
386,0.00440839694656453,-0.0029770992366407456,-0.0030496183206082383,0.0030919189453123136,-0.004673095703124965,1.0058408203124989
387,0.00440839694656453,0.004656488549618809,0.004583969465651289,0.0006505126953123136,0.0011862792968750351,0.999737304687499
388,-0.0032251908396950246,-0.018244274809159827,-0.0030496183206082383,0.0004063720703123136,-0.0002785644531249649,1.0041318359374989
389,-0.0032251908396950246,-0.010610687022900273,0.004583969465651289,-0.0013026123046876864,0.003871826171875035,1.0080380859374989
390,0.01204198473282403,-0.0029770992366407456,-0.010683206106867793,-0.0003260498046876864,-0.004917236328124965,0.989727539062499
391,-0.0032251908396950246,-0.018244274809159827,0.004583969465651289,0.005533325195312314,-0.003208251953124965,0.995586914062499
392,-0.01085877862595458,0.02755725190839743,0.004583969465651289,0.0018712158203123136,0.002406982421875035,1.0060849609374989
393,-0.01085877862595458,-0.010610687022900273,-0.010683206106867793,0.005045043945312314,0.006069091796875035,0.996319335937499
394,0.01204198473282403,0.012290076335878336,-0.0030496183206082383,-0.0017908935546876864,-0.002964111328124965,0.996075195312499
395,0.00440839694656453,0.012290076335878336,0.004583969465651289,-0.0005701904296876864,0.0019187011718750351,1.0175595703124989
396,0.00440839694656453,0.012290076335878336,-0.0030496183206082383,0.0001622314453123136,-0.0007668457031249649,1.0009580078124989
397,-0.0032251908396950246,0.012290076335878336,-0.010683206106867793,0.0023594970703123136,0.0016745605468750351,0.992657226562499
398,0.00440839694656453,-0.010610687022900273,-0.010683206106867793,0.0004063720703123136,-0.004428955078124965,1.0065732421874989
399,-0.026125954198473633,-0.0029770992366407456,0.012217557251910843,0.007242309570312314,0.007289794921875035,0.992168945312499
400,-0.0032251908396950246,0.004656488549618809,0.012217557251910843,-0.0005701904296876864,0.003139404296875035,0.997540039062499
401,0.00440839694656453,-0.0029770992366407456,-0.010683206106867793,0.013345825195312314,-0.0002785644531249649,0.996075195312499
402,0.00440839694656453,0.004656488549618809,-0.0030496183206082383,0.013834106445312314,0.002651123046875035,1.0002255859374989
403,0.01204198473282403,-0.0029770992366407456,-0.010683206106867793,-0.004964721679687686,-0.0005227050781249649,0.998516601562499
404,0.00440839694656453,-0.010610687022900273,-0.0030496183206082383,0.015787231445312314,0.0009421386718750351,1.0004697265624989
405,0.01204198473282403,-0.025877862595419354,-0.0030496183206082383,-0.0013026123046876864,-0.001987548828124965,1.0197568359374989
406,0.01204198473282403,-0.0029770992366407456,0.012217557251910843,-0.006429565429687686,-3.4423828124964875e-05,0.999249023437499
407,0.02730916030534314,-0.0029770992366407456,-0.0030496183206082383,0.016031372070312314,-0.0002785644531249649,1.0012021484374989
408,0.01204198473282403,-0.0029770992366407456,0.004583969465651289,-0.012533081054687686,0.004360107421875035,1.0075498046874989
409,-0.0032251908396950246,-0.010610687022900273,-0.0030496183206082383,0.0018712158203123136,-0.002231689453124965,0.989239257812499
410,-0.018492366412214134,-0.0029770992366407456,-0.0030496183206082383,-0.013753784179687686,0.0004538574218750351,1.0136533203124989
411,0.01204198473282403,0.012290076335878336,0.004583969465651289,-0.013997924804687686,-0.005161376953124965,1.0009580078124989
412,0.01204198473282403,0.004656488549618809,-0.0030496183206082383,0.0008946533203123136,-3.4423828124964875e-05,0.993389648437499
413,0.00440839694656453,0.004656488549618809,0.004583969465651289,-0.011312377929687686,-0.002964111328124965,1.0114560546874989
414,0.019675572519083584,-0.0029770992366407456,0.012217557251910843,-0.0030115966796876864,-0.003696533203124965,0.999737304687499
415,0.00440839694656453,-0.018244274809159827,0.004583969465651289,0.0001622314453123136,-0.003696533203124965,0.990459960937499
416,0.00440839694656453,0.012290076335878336,-0.0030496183206082383,0.014322387695312314,0.003139404296875035,1.0046201171874989
417,-0.0032251908396950246,0.02755725190839743,-0.0030496183206082383,0.0026036376953123136,-0.013462158203124965,1.0021787109374989
418,-0.018492366412214134,-0.010610687022900273,-0.010683206106867793,-0.010824096679687686,0.0014304199218750351,1.0033994140624989
419,-0.01085877862595458,-0.018244274809159827,0.004583969465651289,0.0023594970703123136,0.005824951171875035,0.994854492187499
420,0.00440839694656453,-0.018244274809159827,-0.010683206106867793,-8.19091796876864e-05,0.005336669921875035,0.994610351562499
421,-0.018492366412214134,0.012290076335878336,0.004583969465651289,-0.012288940429687686,-0.001987548828124965,1.0131650390624989
422,0.01204198473282403,0.004656488549618809,0.004583969465651289,-0.003988159179687686,0.002406982421875035,1.0046201171874989
423,0.00440839694656453,0.004656488549618809,-0.010683206106867793,-8.19091796876864e-05,0.003871826171875035,0.999249023437499
424,-0.0032251908396950246,-0.010610687022900273,0.012217557251910843,0.005289184570312314,0.0004538574218750351,0.991680664062499
425,0.01204198473282403,0.004656488549618809,0.012217557251910843,-0.004720581054687686,-0.0005227050781249649,1.0026669921874989
426,0.00440839694656453,-0.0029770992366407456,-0.0030496183206082383,-0.0010584716796876864,-0.0002785644531249649,0.993389648437499
427,-0.01085877862595458,0.004656488549618809,0.004583969465651289,0.016031372070312314,0.0006979980468750351,1.0065732421874989
428,-0.0032251908396950246,0.012290076335878336,-0.010683206106867793,-0.014486206054687686,-0.0017434082031249649,0.997784179687499
429,0.00440839694656453,0.01992366412213789,0.004583969465651289,0.0006505126953123136,0.005092529296875035,0.997784179687499
430,0.00440839694656453,0.012290076335878336,-0.0030496183206082383,-0.0017908935546876864,0.002406982421875035,0.998272460937499
431,-0.018492366412214134,0.004656488549618809,-0.010683206106867793,-0.012288940429687686,-3.4423828124964875e-05,1.0075498046874989
432,-0.0032251908396950246,0.004656488549618809,-0.0030496183206082383,-0.0008143310546876864,0.003383544921875035,0.999737304687499
433,-0.0032251908396950246,0.004656488549618809,-0.0030496183206082383,0.0011387939453123136,0.0009421386718750351,0.992657226562499
434,0.01204198473282403,0.004656488549618809,-0.0030496183206082383,0.016519653320312314,-0.002719970703124965,0.996319335937499
435,-0.0032251908396950246,0.01992366412213789,-0.0030496183206082383,0.005045043945312314,0.003871826171875035,0.995098632812499
436,0.01204198473282403,-0.018244274809159827,0.012217557251910843,0.0006505126953123136,0.0009421386718750351,0.995831054687499
437,0.00440839694656453,-0.010610687022900273,-0.010683206106867793,0.0008946533203123136,0.0016745605468750351,1.0102353515624989
438,0.01204198473282403,-0.0029770992366407456,-0.010683206106867793,0.0018712158203123136,-0.0014992675781249649,1.0036435546874989
439,0.00440839694656453,0.004656488549618809,-0.010683206106867793,-0.0013026123046876864,-0.005893798828124965,0.974346679687499
440,-0.01085877862595458,0.03519083969465697,0.004583969465651289,-0.0015467529296876864,0.003627685546875035,0.999493164062499
441,-0.0032251908396950246,0.004656488549618809,-0.01831679389312732,-0.0017908935546876864,-0.0010109863281249649,1.0141416015624989
442,0.01204198473282403,-0.025877862595419354,-0.0030496183206082383,0.004800903320312314,-0.003208251953124965,0.996075195312499
443,-0.01085877862595458,0.012290076335878336,0.012217557251910843,0.0004063720703123136,-0.0010109863281249649,1.0087705078124989
444,-0.0032251908396950246,0.004656488549618809,-0.010683206106867793,-0.0022791748046876864,0.004848388671875035,0.999981445312499
445,-0.0032251908396950246,0.01992366412213789,0.004583969465651289,0.015787231445312314,-0.005649658203124965,1.0002255859374989
446,-0.01085877862595458,0.004656488549618809,0.004583969465651289,-0.0022791748046876864,0.002651123046875035,0.997051757812499
447,-0.0032251908396950246,0.004656488549618809,0.012217557251910843,0.012125122070312314,0.005824951171875035,0.991680664062499
448,-0.0032251908396950246,0.004656488549618809,-0.0030496183206082383,0.0038243408203123136,-0.0012551269531249649,1.0031552734374989
449,-0.0032251908396950246,-0.018244274809159827,-0.0030496183206082383,-0.0025233154296876864,0.003627685546875035,1.0070615234374989
450,0.01204198473282403,-0.025877862595419354,-0.0030496183206082383,0.0008946533203123136,-0.0014992675781249649,0.999493164062499
451,0.01204198473282403,-0.0029770992366407456,0.004583969465651289,0.013345825195312314,0.002406982421875035,0.998516601562499
452,-0.0032251908396950246,-0.010610687022900273,0.012217557251910843,0.005777465820312314,0.0009421386718750351,0.997051757812499
453,0.00440839694656453,0.01992366412213789,-0.010683206106867793,0.006998168945312314,-0.002475830078124965,0.994610351562499
454,-0.0032251908396950246,0.004656488549618809,0.01985114503817037,0.0011387939453123136,-0.002231689453124965,1.0033994140624989
455,0.01204198473282403,-0.0029770992366407456,0.004583969465651289,0.014322387695312314,-0.005161376953124965,1.0014462890624989
456,0.00440839694656453,0.004656488549618809,0.01985114503817037,0.015054809570312314,0.002406982421875035,1.0016904296874989
457,0.00440839694656453,-0.018244274809159827,-0.010683206106867793,0.004800903320312314,0.006557373046875035,1.0185361328124989
458,0.01204198473282403,0.01992366412213789,-0.0030496183206082383,-0.0017908935546876864,0.002406982421875035,1.0021787109374989
459,-0.0032251908396950246,0.012290076335878336,0.012217557251910843,-0.0008143310546876864,0.006313232421875035,0.994366210937499
460,-0.0032251908396950246,0.004656488549618809,0.004583969465651289,0.014322387695312314,-0.0005227050781249649,0.999493164062499
461,-0.0032251908396950246,0.012290076335878336,-0.010683206106867793,-0.013509643554687686,0.0019187011718750351,0.997784179687499
462,0.01204198473282403,0.012290076335878336,-0.010683206106867793,-0.0005701904296876864,-0.0002785644531249649,0.991680664062499
463,-0.018492366412214134,-0.010610687022900273,-0.010683206106867793,0.0018712158203123136,-0.003696533203124965,0.996319335937499
464,0.00440839694656453,0.004656488549618809,-0.0030496183206082383,-0.004476440429687686,0.0006979980468750351,0.996319335937499
465,-0.0032251908396950246,-0.03351145038167891,0.004583969465651289,-8.19091796876864e-05,0.003139404296875035,1.0033994140624989
466,0.01204198473282403,-0.0029770992366407456,0.012217557251910843,0.0004063720703123136,-0.006137939453124965,1.0031552734374989
467,0.00440839694656453,-0.0029770992366407456,-0.010683206106867793,-0.004964721679687686,0.003871826171875035,0.996563476562499
468,0.01204198473282403,-0.018244274809159827,0.012217557251910843,0.0026036376953123136,-0.0010109863281249649,0.999493164062499
469,0.00440839694656453,-0.010610687022900273,-0.010683206106867793,-0.010824096679687686,-0.0014992675781249649,0.995831054687499
470,0.00440839694656453,0.012290076335878336,-0.010683206106867793,0.0033360595703123136,-0.001987548828124965,0.999493164062499
471,0.00440839694656453,-0.0029770992366407456,0.012217557251910843,-0.0017908935546876864,0.003139404296875035,1.0195126953124989
472,-0.0032251908396950246,-0.025877862595419354,0.01985114503817037,0.0004063720703123136,-0.0012551269531249649,1.0046201171874989
473,-0.0032251908396950246,-0.0029770992366407456,-0.025950381679386875,0.0018712158203123136,0.0004538574218750351,1.0087705078124989
474,0.019675572519083584,-0.010610687022900273,0.01985114503817037,-0.005453002929687686,0.0009421386718750351,1.0029111328124989
475,-0.0032251908396950246,-0.0029770992366407456,-0.010683206106867793,0.006265747070312314,-0.0010109863281249649,1.0036435546874989
476,0.019675572519083584,0.01992366412213789,0.004583969465651289,0.0028477783203123136,0.003139404296875035,0.994366210937499
477,-0.0032251908396950246,0.01992366412213789,0.004583969465651289,-0.0037440185546876864,0.002162841796875035,0.997784179687499
478,0.019675572519083584,-0.010610687022900273,0.004583969465651289,0.014078247070312314,0.004604248046875035,0.997784179687499
479,-0.018492366412214134,-0.018244274809159827,-0.010683206106867793,0.0033360595703123136,-0.0005227050781249649,1.0048642578124989
480,-0.0032251908396950246,0.012290076335878336,-0.0030496183206082383,-0.004232299804687686,-0.002475830078124965,0.999981445312499
481,-0.01085877862595458,-0.010610687022900273,-0.025950381679386875,-0.0027674560546876864,0.0019187011718750351,1.0046201171874989
482,-0.0032251908396950246,0.004656488549618809,-0.010683206106867793,-0.008138549804687686,-0.003452392578124965,0.999981445312499
483,0.00440839694656453,-0.025877862595419354,0.012217557251910843,-0.0025233154296876864,-0.0014992675781249649,0.997295898437499
484,-0.01085877862595458,-0.0029770992366407456,0.012217557251910843,-8.19091796876864e-05,0.0014304199218750351,1.0007138671874989
485,0.01204198473282403,-0.0029770992366407456,0.012217557251910843,-0.003988159179687686,-0.0010109863281249649,0.999737304687499
486,0.00440839694656453,0.004656488549618809,-0.01831679389312732,0.0021153564453123136,0.003627685546875035,0.999493164062499
487,-0.0032251908396950246,0.012290076335878336,-0.010683206106867793,0.004068481445312314,-0.019809814453124963,0.999981445312499
488,-0.0032251908396950246,-0.0029770992366407456,-0.0030496183206082383,-0.003988159179687686,0.002895263671875035,1.0004697265624989
489,-0.0032251908396950246,-0.0029770992366407456,0.012217557251910843,0.005289184570312314,0.006313232421875035,1.0036435546874989
490,0.01204198473282403,0.004656488549618809,0.012217557251910843,0.016519653320312314,-0.0014992675781249649,1.0026669921874989
491,0.00440839694656453,-0.0029770992366407456,0.004583969465651289,-0.0027674560546876864,0.006801513671875035,1.0033994140624989
492,0.00440839694656453,-0.0029770992366407456,-0.0030496183206082383,-0.0032557373046876864,-0.002475830078124965,1.0004697265624989
493,0.02730916030534314,-0.010610687022900273,0.004583969465651289,0.013101684570312314,0.008510498046875035,0.989239257812499
494,0.00440839694656453,0.004656488549618809,-0.0030496183206082383,0.016519653320312314,-0.005893798828124965,1.0019345703124989
495,-0.0032251908396950246,0.02755725190839743,0.027484732824429925,-0.0003260498046876864,0.005092529296875035,0.990459960937499
496,0.00440839694656453,0.01992366412213789,0.012217557251910843,-0.0013026123046876864,0.0016745605468750351,1.0185361328124989
497,0.019675572519083584,0.012290076335878336,0.004583969465651289,0.0030919189453123136,-0.003696533203124965,0.999004882812499
498,0.019675572519083584,0.004656488549618809,-0.0030496183206082383,0.009927856445312314,0.002895263671875035,1.0070615234374989
499,-0.0032251908396950246,0.012290076335878336,0.004583969465651289,-0.009115112304687686,-0.0007668457031249649,1.0182919921874989
500,-0.0032251908396950246,0.004656488549618809,0.004583969465651289,-0.003988159179687686,0.008022216796875035,1.0007138671874989
501,-0.0032251908396950246,0.012290076335878336,0.004583969465651289,-0.0017908935546876864,0.003139404296875035,0.999249023437499
502,0.01204198473282403,0.012290076335878336,-0.0030496183206082383,0.0038243408203123136,-3.4423828124964875e-05,0.998516601562499
503,0.019675572519083584,0.02755725190839743,0.01985114503817037,-0.008382690429687686,0.008266357421875035,0.998272460937499
504,0.019675572519083584,0.012290076335878336,-0.0030496183206082383,0.0011387939453123136,-0.005161376953124965,0.999737304687499
505,-0.0032251908396950246,-0.010610687022900273,-0.0030496183206082383,-0.0010584716796876864,-0.004917236328124965,1.0026669921874989
506,0.01204198473282403,-0.018244274809159827,0.01985114503817037,0.0013829345703123136,-0.0010109863281249649,0.999249023437499
507,0.019675572519083584,-0.018244274809159827,0.004583969465651289,-0.014242065429687686,-0.002719970703124965,0.997784179687499
508,0.01204198473282403,-0.0029770992366407456,-0.010683206106867793,0.0028477783203123136,-0.0014992675781249649,1.0012021484374989
509,-0.0032251908396950246,-0.0029770992366407456,-0.010683206106867793,-0.0032557373046876864,-0.003696533203124965,1.0085263671874989
510,0.00440839694656453,0.012290076335878336,0.012217557251910843,-0.0030115966796876864,0.0004538574218750351,1.0031552734374989
511,0.019675572519083584,-0.0029770992366407456,0.004583969465651289,-0.0034998779296876864,-0.001987548828124965,0.995098632812499
512,0.00440839694656453,-0.010610687022900273,-0.01831679389312732,0.016275512695312314,0.00020971679687503512,0.992657226562499
513,0.01204198473282403,0.03519083969465697,0.01985114503817037,0.007486450195312314,-0.004184814453124965,1.0043759765624989
514,-0.0032251908396950246,0.004656488549618809,0.004583969465651289,-0.0005701904296876864,-0.003208251953124965,0.999004882812499
515,0.01204198473282403,-0.0029770992366407456,0.004583969465651289,-0.0022791748046876864,0.003627685546875035,1.0026669921874989
516,0.00440839694656453,-0.018244274809159827,0.012217557251910843,0.008463012695312314,0.0006979980468750351,0.999737304687499
517,-0.0032251908396950246,-0.010610687022900273,-0.0030496183206082383,0.0001622314453123136,-0.003940673828124965,0.999004882812499
518,0.00440839694656453,-0.010610687022900273,-0.0030496183206082383,-8.19091796876864e-05,0.002406982421875035,1.0016904296874989
519,-0.0032251908396950246,-0.0029770992366407456,-0.010683206106867793,-0.005453002929687686,0.00020971679687503512,1.0046201171874989
520,-0.0032251908396950246,-0.0029770992366407456,-0.0030496183206082383,0.004312622070312314,-0.003696533203124965,0.998516601562499
521,0.01204198473282403,-0.0029770992366407456,-0.0030496183206082383,0.0026036376953123136,-0.004917236328124965,1.0065732421874989
522,-0.018492366412214134,-0.0029770992366407456,0.004583969465651289,0.0001622314453123136,0.004604248046875035,0.990215820312499
523,0.00440839694656453,-0.010610687022900273,0.004583969465651289,0.014322387695312314,0.0004538574218750351,0.999981445312499
524,-0.01085877862595458,-0.0029770992366407456,0.01985114503817037,-0.012533081054687686,-0.018344970703124963,0.998028320312499
525,-0.0032251908396950246,-0.03351145038167891,-0.0030496183206082383,0.0018712158203123136,0.003627685546875035,1.0182919921874989
526,-0.0032251908396950246,0.004656488549618809,0.012217557251910843,0.015787231445312314,-0.003696533203124965,1.0012021484374989
527,-0.01085877862595458,0.004656488549618809,0.004583969465651289,0.0030919189453123136,0.005336669921875035,0.997784179687499
528,0.00440839694656453,0.01992366412213789,-0.010683206106867793,0.0018712158203123136,0.002406982421875035,1.0031552734374989
529,0.019675572519083584,0.004656488549618809,-0.0030496183206082383,0.0008946533203123136,0.0014304199218750351,0.999737304687499
530,0.00440839694656453,-0.010610687022900273,-0.0030496183206082383,-0.0034998779296876864,0.002406982421875035,1.0038876953124989
531,-0.01085877862595458,0.004656488549618809,0.004583969465651289,-8.19091796876864e-05,0.006069091796875035,0.997784179687499
532,0.00440839694656453,-0.010610687022900273,-0.010683206106867793,0.0021153564453123136,-0.004184814453124965,0.997295898437499
533,-0.0032251908396950246,-0.0029770992366407456,-0.010683206106867793,0.0026036376953123136,0.004115966796875035,0.994854492187499
534,-0.01085877862595458,0.012290076335878336,0.004583969465651289,0.0035802001953123136,-0.0014992675781249649,0.997295898437499
535,-0.01085877862595458,-0.018244274809159827,-0.01831679389312732,-0.005697143554687686,0.0016745605468750351,1.0085263671874989
536,-0.0032251908396950246,-0.018244274809159827,0.004583969465651289,0.0018712158203123136,-0.0005227050781249649,0.991680664062499
537,-0.018492366412214134,0.012290076335878336,0.004583969465651289,0.016519653320312314,0.002651123046875035,0.990948242187499
538,0.00440839694656453,-0.010610687022900273,0.012217557251910843,0.014810668945312314,-0.0014992675781249649,1.0012021484374989
539,0.019675572519083584,0.012290076335878336,-0.010683206106867793,0.0033360595703123136,-0.005649658203124965,1.0200009765624989
540,0.00440839694656453,-0.0029770992366407456,-0.0030496183206082383,-0.0017908935546876864,-0.0012551269531249649,1.0002255859374989
541,0.02730916030534314,0.004656488549618809,-0.0030496183206082383,-0.013265502929687686,-0.0005227050781249649,0.990704101562499
542,0.00440839694656453,-0.010610687022900273,-0.0030496183206082383,0.005777465820312314,-0.0014992675781249649,0.997784179687499
543,-0.01085877862595458,-0.018244274809159827,-0.0030496183206082383,-0.0005701904296876864,-0.002231689453124965,1.0046201171874989
544,-0.018492366412214134,-0.010610687022900273,0.01985114503817037,0.0013829345703123136,0.0006979980468750351,1.0036435546874989
545,-0.01085877862595458,-0.018244274809159827,-0.0030496183206082383,0.006998168945312314,0.002406982421875035,1.0033994140624989
546,-0.01085877862595458,-0.0029770992366407456,-0.0030496183206082383,0.0021153564453123136,-0.0017434082031249649,0.997051757812499
547,0.01204198473282403,0.012290076335878336,-0.01831679389312732,-0.0008143310546876864,-0.002231689453124965,1.0016904296874989
548,-0.0032251908396950246,-0.025877862595419354,0.012217557251910843,0.0016270751953123136,-0.0002785644531249649,1.0178037109374989
549,-0.0032251908396950246,0.01992366412213789,-0.0030496183206082383,0.015787231445312314,0.002406982421875035,1.0021787109374989
550,0.00440839694656453,0.012290076335878336,0.004583969465651289,-0.0025233154296876864,0.002651123046875035,0.995831054687499
551,0.00440839694656453,-0.010610687022900273,-0.010683206106867793,0.005289184570312314,0.002651123046875035,0.999981445312499
552,-0.0032251908396950246,-0.010610687022900273,0.004583969465651289,-0.0003260498046876864,-0.006382080078124965,0.996319335937499
553,0.01204198473282403,-0.010610687022900273,0.004583969465651289,0.013101684570312314,0.008998779296875035,0.999249023437499
554,0.019675572519083584,0.004656488549618809,0.012217557251910843,-0.0032557373046876864,-0.003452392578124965,1.0021787109374989
555,0.01204198473282403,-0.010610687022900273,0.004583969465651289,-0.0005701904296876864,0.0006979980468750351,0.999493164062499
556,0.01204198473282403,-0.0029770992366407456,-0.0030496183206082383,0.0030919189453123136,-0.004917236328124965,0.997295898437499
557,0.00440839694656453,-0.0029770992366407456,0.004583969465651289,0.004068481445312314,-0.0005227050781249649,1.0024228515624989
558,-0.0032251908396950246,0.004656488549618809,0.004583969465651289,-8.19091796876864e-05,0.002651123046875035,1.0141416015624989
559,0.00440839694656453,-0.010610687022900273,-0.0030496183206082383,0.016031372070312314,0.003627685546875035,1.0021787109374989
560,-0.026125954198473633,0.01992366412213789,0.012217557251910843,0.0033360595703123136,0.003383544921875035,0.996807617187499
561,0.00440839694656453,-0.010610687022900273,0.01985114503817037,-0.0003260498046876864,0.002162841796875035,1.0117001953124989
562,0.01204198473282403,-0.0029770992366407456,0.004583969465651289,-0.014486206054687686,-0.002231689453124965,0.998516601562499
563,0.00440839694656453,-0.010610687022900273,0.004583969465651289,-0.0022791748046876864,-0.0012551269531249649,0.999737304687499
564,-0.0032251908396950246,-0.0029770992366407456,-0.0030496183206082383,0.013834106445312314,-0.004184814453124965,1.0012021484374989
565,0.00440839694656453,0.004656488549618809,-0.0030496183206082383,-0.0005701904296876864,0.0016745605468750351,1.0031552734374989
566,-0.018492366412214134,-0.010610687022900273,0.004583969465651289,-0.004476440429687686,0.002895263671875035,1.0048642578124989
567,-0.01085877862595458,-0.0029770992366407456,-0.010683206106867793,0.015787231445312314,-0.003208251953124965,0.996319335937499
568,-0.01085877862595458,-0.018244274809159827,0.01985114503817037,0.016275512695312314,0.0019187011718750351,1.0009580078124989
569,0.00440839694656453,-0.0029770992366407456,-0.0030496183206082383,-0.0027674560546876864,-0.0005227050781249649,0.996807617187499
570,0.00440839694656453,-0.0029770992366407456,0.012217557251910843,0.005533325195312314,-0.0017434082031249649,1.0043759765624989
571,-0.01085877862595458,-0.0029770992366407456,0.004583969465651289,-0.012044799804687686,0.002162841796875035,0.997051757812499
572,0.01204198473282403,-0.0029770992366407456,-0.010683206106867793,0.0008946533203123136,-0.0002785644531249649,1.0026669921874989
573,0.01204198473282403,-0.018244274809159827,0.027484732824429925,-0.0013026123046876864,0.004115966796875035,0.995586914062499
574,0.00440839694656453,-0.018244274809159827,-0.01831679389312732,-0.0037440185546876864,0.0016745605468750351,1.0016904296874989
575,0.01204198473282403,-0.018244274809159827,-0.0030496183206082383,0.004312622070312314,-0.0014992675781249649,1.0016904296874989
576,0.01204198473282403,0.004656488549618809,-0.01831679389312732,-0.012533081054687686,-0.003208251953124965,0.998516601562499
577,0.01204198473282403,0.004656488549618809,-0.010683206106867793,0.004312622070312314,0.007045654296875035,1.0046201171874989
578,-0.0032251908396950246,-0.010610687022900273,0.012217557251910843,0.011880981445312314,0.0006979980468750351,0.989239257812499
579,0.00440839694656453,0.01992366412213789,0.004583969465651289,-0.0037440185546876864,0.007045654296875035,0.998516601562499
580,0.00440839694656453,0.012290076335878336,-0.0030496183206082383,0.005533325195312314,0.0009421386718750351,0.997295898437499
581,0.00440839694656453,0.01992366412213789,-0.010683206106867793,0.0021153564453123136,-3.4423828124964875e-05,1.0029111328124989
582,-0.0032251908396950246,0.004656488549618809,0.004583969465651289,-0.004720581054687686,-0.005405517578124965,0.989727539062499
583,-0.01085877862595458,0.012290076335878336,0.004583969465651289,0.004068481445312314,0.00020971679687503512,0.998028320312499
584,-0.0032251908396950246,-0.010610687022900273,-0.010683206106867793,-0.004720581054687686,0.004115966796875035,0.999004882812499
585,0.01204198473282403,-0.0029770992366407456,-0.0030496183206082383,0.0026036376953123136,-0.019565673828124963,0.997784179687499
586,-0.0032251908396950246,-0.018244274809159827,-0.0030496183206082383,0.0016270751953123136,-0.0014992675781249649,1.0136533203124989
587,0.00440839694656453,0.012290076335878336,-0.01831679389312732,0.014810668945312314,-0.002964111328124965,0.998272460937499
588,0.01204198473282403,-0.018244274809159827,0.012217557251910843,0.004312622070312314,0.0016745605468750351,1.0014462890624989
589,0.019675572519083584,-0.010610687022900273,0.012217557251910843,-0.014486206054687686,0.003383544921875035,0.998760742187499
590,-0.01085877862595458,0.02755725190839743,-0.0030496183206082383,-0.014242065429687686,-0.0002785644531249649,1.0004697265624989
591,-0.01085877862595458,-0.0029770992366407456,0.004583969465651289,0.0028477783203123136,0.003139404296875035,0.989727539062499
592,-0.0032251908396950246,-0.025877862595419354,0.012217557251910843,0.016031372070312314,-0.0010109863281249649,0.993633789062499
593,-0.0032251908396950246,-0.0029770992366407456,-0.0030496183206082383,0.0026036376953123136,-0.0002785644531249649,0.999737304687499
594,-0.0032251908396950246,-0.018244274809159827,-0.0030496183206082383,0.014322387695312314,0.0016745605468750351,1.0021787109374989
595,0.01204198473282403,-0.010610687022900273,0.004583969465651289,0.014810668945312314,-0.003452392578124965,1.0170712890624989
596,0.00440839694656453,0.004656488549618809,0.004583969465651289,0.0035802001953123136,-0.005649658203124965,0.990215820312499
597,-0.0032251908396950246,-0.010610687022900273,0.004583969465651289,0.014810668945312314,0.005824951171875035,0.993145507812499
598,0.01204198473282403,0.012290076335878336,-0.0030496183206082383,-0.013265502929687686,0.002162841796875035,0.991924804687499
599,0.01204198473282403,0.012290076335878336,-0.010683206106867793,-0.0034998779296876864,-0.005649658203124965,0.990948242187499
600,0.00440839694656453,0.01992366412213789,-0.010683206106867793,0.0026036376953123136,-0.002231689453124965,0.993633789062499
601,0.01204198473282403,-0.010610687022900273,0.01985114503817037,0.009195434570312314,-0.0017434082031249649,0.999004882812499
602,0.02730916030534314,0.004656488549618809,-0.0030496183206082383,-0.0027674560546876864,0.0009421386718750351,1.0021787109374989
603,-0.018492366412214134,0.004656488549618809,0.012217557251910843,-0.014486206054687686,0.002406982421875035,1.0004697265624989
604,-0.0032251908396950246,-0.025877862595419354,-0.0030496183206082383,-0.0020350341796876864,-0.002231689453124965,0.988506835937499
605,-0.0032251908396950246,0.004656488549618809,-0.0030496183206082383,0.004312622070312314,-0.005161376953124965,1.0033994140624989
606,0.00440839694656453,0.01992366412213789,0.004583969465651289,-0.0032557373046876864,0.003383544921875035,1.0024228515624989
607,0.00440839694656453,0.02755725190839743,0.012217557251910843,0.004556762695312314,-0.002231689453124965,1.0031552734374989
608,-0.01085877862595458,-0.0029770992366407456,0.012217557251910843,0.0028477783203123136,0.0009421386718750351,0.998272460937499
609,0.019675572519083584,-0.018244274809159827,-0.01831679389312732,0.016519653320312314,-0.0005227050781249649,0.999493164062499
610,-0.0032251908396950246,-0.0029770992366407456,-0.01831679389312732,0.0008946533203123136,0.0016745605468750351,0.996319335937499
611,-0.01085877862595458,-0.0029770992366407456,0.012217557251910843,0.0030919189453123136,0.0016745605468750351,0.995098632812499
612,-0.0032251908396950246,-0.010610687022900273,-0.010683206106867793,0.0033360595703123136,-0.0002785644531249649,1.0195126953124989
613,0.00440839694656453,-0.0029770992366407456,-0.0030496183206082383,-0.0022791748046876864,-0.0002785644531249649,0.998516601562499
614,0.00440839694656453,-0.010610687022900273,-0.0030496183206082383,0.015298950195312314,0.004848388671875035,1.0021787109374989
615,-0.01085877862595458,-0.0029770992366407456,-0.0030496183206082383,-0.0020350341796876864,0.0004538574218750351,0.991680664062499
616,-0.0032251908396950246,0.012290076335878336,-0.0030496183206082383,-0.014486206054687686,-0.007358642578124965,0.994366210937499
617,-0.01085877862595458,0.004656488549618809,-0.0030496183206082383,-0.013265502929687686,0.0014304199218750351,0.995831054687499
618,-0.018492366412214134,-0.0029770992366407456,0.012217557251910843,-0.0010584716796876864,-0.0014992675781249649,0.999249023437499
619,-0.0032251908396950246,-0.018244274809159827,0.004583969465651289,-0.0015467529296876864,0.002651123046875035,0.998516601562499
620,0.01204198473282403,-0.018244274809159827,0.004583969465651289,0.0021153564453123136,0.0009421386718750351,1.0009580078124989
621,-0.0032251908396950246,0.004656488549618809,0.004583969465651289,0.013345825195312314,0.004604248046875035,0.993389648437499
622,-0.01085877862595458,0.012290076335878336,0.004583969465651289,-0.0030115966796876864,-0.013462158203124965,0.997540039062499
623,-0.01085877862595458,-0.0029770992366407456,0.004583969465651289,0.0011387939453123136,-0.004184814453124965,1.0175595703124989
624,-0.018492366412214134,0.012290076335878336,0.01985114503817037,-8.19091796876864e-05,0.003383544921875035,1.0200009765624989
625,-0.018492366412214134,0.012290076335878336,0.004583969465651289,0.008707153320312314,0.00020971679687503512,0.998272460937499
626,-0.018492366412214134,-0.0029770992366407456,0.012217557251910843,-0.0015467529296876864,0.005580810546875035,0.999004882812499
627,-0.0032251908396950246,0.01992366412213789,-0.010683206106867793,0.0011387939453123136,0.007289794921875035,1.0007138671874989
628,-0.026125954198473633,0.012290076335878336,-0.0030496183206082383,-0.0013026123046876864,-0.0010109863281249649,1.0019345703124989
629,-0.0032251908396950246,-0.0029770992366407456,0.004583969465651289,-0.0017908935546876864,-3.4423828124964875e-05,0.993877929687499
630,0.01204198473282403,0.02755725190839743,0.004583969465651289,-0.0022791748046876864,0.003627685546875035,0.992657226562499
631,0.00440839694656453,-0.0029770992366407456,-0.010683206106867793,0.0013829345703123136,0.003627685546875035,1.0029111328124989
632,0.00440839694656453,0.004656488549618809,-0.0030496183206082383,0.006265747070312314,0.0009421386718750351,0.995586914062499
633,-0.0032251908396950246,-0.0029770992366407456,0.004583969465651289,-0.0005701904296876864,0.0004538574218750351,0.995586914062499
634,-0.018492366412214134,-0.025877862595419354,-0.010683206106867793,0.006265747070312314,0.005336669921875035,0.997540039062499
635,-0.0032251908396950246,0.004656488549618809,-0.0030496183206082383,0.0016270751953123136,0.00020971679687503512,0.994366210937499
636,-0.0032251908396950246,-0.018244274809159827,0.01985114503817037,-8.19091796876864e-05,0.003139404296875035,1.0055966796874989
637,0.00440839694656453,0.01992366412213789,0.004583969465651289,-0.0008143310546876864,0.0016745605468750351,1.0178037109374989
638,-0.0032251908396950246,0.004656488549618809,0.012217557251910843,0.0023594970703123136,0.006313232421875035,0.998272460937499
639,0.00440839694656453,-0.025877862595419354,-0.0030496183206082383,-0.0008143310546876864,-0.0014992675781249649,0.998272460937499
640,-0.018492366412214134,-0.018244274809159827,0.004583969465651289,0.0004063720703123136,0.003627685546875035,1.0160947265624989
641,0.00440839694656453,0.012290076335878336,0.01985114503817037,-0.0022791748046876864,-0.0005227050781249649,0.995098632812499
642,0.00440839694656453,0.004656488549618809,-0.0030496183206082383,-0.0022791748046876864,0.003627685546875035,1.0080380859374989
643,0.00440839694656453,0.004656488549618809,0.004583969465651289,0.010660278320312314,-0.0017434082031249649,1.0102353515624989
644,-0.0032251908396950246,-0.0029770992366407456,0.004583969465651289,-0.0005701904296876864,0.002162841796875035,1.0014462890624989
645,-0.01085877862595458,0.004656488549618809,-0.0030496183206082383,0.0035802001953123136,-0.018344970703124963,0.994854492187499
646,-0.0032251908396950246,-0.0029770992366407456,0.004583969465651289,0.014322387695312314,-0.002719970703124965,0.994854492187499
647,-0.018492366412214134,-0.0029770992366407456,0.004583969465651289,-0.0027674560546876864,0.002895263671875035,1.0046201171874989
648,-0.01085877862595458,0.01992366412213789,0.01985114503817037,-0.0032557373046876864,0.022182373046875037,0.990704101562499
649,0.00440839694656453,-0.010610687022900273,0.012217557251910843,-0.0017908935546876864,0.002162841796875035,1.0192685546874989
650,0.00440839694656453,0.012290076335878336,-0.0030496183206082383,0.0026036376953123136,-0.003452392578124965,0.998028320312499
651,-0.0032251908396950246,-0.0029770992366407456,0.004583969465651289,-0.010824096679687686,-0.0010109863281249649,0.999981445312499
652,-0.0032251908396950246,0.004656488549618809,0.012217557251910843,-0.0005701904296876864,0.008266357421875035,1.0038876953124989
653,0.00440839694656453,-0.0029770992366407456,0.012217557251910843,-0.0008143310546876864,-0.0017434082031249649,1.0043759765624989
654,-0.01085877862595458,-0.018244274809159827,0.004583969465651289,0.010171997070312314,-0.007358642578124965,1.0033994140624989
655,0.019675572519083584,0.004656488549618809,0.012217557251910843,0.012369262695312314,0.006801513671875035,0.994366210937499
656,0.01204198473282403,0.012290076335878336,-0.0030496183206082383,0.005777465820312314,0.00020971679687503512,1.0178037109374989
657,-0.0032251908396950246,0.012290076335878336,0.004583969465651289,-0.0010584716796876864,-0.003940673828124965,0.992901367187499
658,0.019675572519083584,-0.018244274809159827,0.012217557251910843,-0.009359252929687686,-0.0007668457031249649,1.0058408203124989
659,0.01204198473282403,0.01992366412213789,0.012217557251910843,0.004068481445312314,-0.002231689453124965,0.994366210937499
660,0.019675572519083584,0.01992366412213789,0.004583969465651289,0.011880981445312314,0.009242919921875035,1.0036435546874989
661,0.00440839694656453,0.004656488549618809,0.012217557251910843,0.0006505126953123136,-0.002719970703124965,0.997784179687499
662,0.00440839694656453,-0.0029770992366407456,-0.0030496183206082383,-0.014242065429687686,-0.001987548828124965,1.0002255859374989
663,0.01204198473282403,-0.025877862595419354,0.004583969465651289,0.0028477783203123136,-0.002231689453124965,1.0004697265624989
664,-0.0032251908396950246,0.004656488549618809,0.004583969465651289,0.0021153564453123136,-0.004184814453124965,1.0026669921874989
665,-0.0032251908396950246,0.01992366412213789,-0.01831679389312732,0.006998168945312314,-0.0012551269531249649,1.0141416015624989
666,0.00440839694656453,-0.0029770992366407456,0.004583969465651289,-0.0032557373046876864,-3.4423828124964875e-05,1.0007138671874989
667,0.00440839694656453,-0.0029770992366407456,0.004583969465651289,0.0004063720703123136,0.0019187011718750351,1.0004697265624989
668,-0.0032251908396950246,-0.010610687022900273,-0.0030496183206082383,-0.0034998779296876864,-0.002719970703124965,0.997051757812499
669,-0.0032251908396950246,-0.010610687022900273,0.004583969465651289,-0.0010584716796876864,-0.002475830078124965,1.0009580078124989
670,0.01204198473282403,0.004656488549618809,0.004583969465651289,-0.0020350341796876864,0.005092529296875035,1.0036435546874989
671,-0.01085877862595458,0.01992366412213789,-0.0030496183206082383,-0.012044799804687686,-0.004917236328124965,0.991436523437499
672,0.00440839694656453,-0.010610687022900273,-0.0030496183206082383,0.0021153564453123136,-0.0012551269531249649,0.992657226562499
673,-0.0032251908396950246,-0.010610687022900273,0.027484732824429925,-0.0015467529296876864,-0.0007668457031249649,0.990948242187499
674,0.01204198473282403,0.01992366412213789,0.004583969465651289,-8.19091796876864e-05,-0.004673095703124965,1.0012021484374989
675,-0.01085877862595458,0.004656488549618809,0.004583969465651289,0.0001622314453123136,-0.005893798828124965,0.994122070312499
676,0.00440839694656453,0.01992366412213789,0.004583969465651289,-8.19091796876864e-05,0.002406982421875035,0.999493164062499
677,0.00440839694656453,-0.041145038167938464,-0.0030496183206082383,0.015787231445312314,0.0014304199218750351,1.0033994140624989
678,0.01204198473282403,-0.010610687022900273,-0.0030496183206082383,-0.0010584716796876864,0.0004538574218750351,0.994122070312499
679,0.00440839694656453,0.012290076335878336,0.012217557251910843,-0.011800659179687686,0.0006979980468750351,1.0146298828124989
680,0.00440839694656453,-0.025877862595419354,0.004583969465651289,-0.012288940429687686,0.0009421386718750351,0.997051757812499
681,0.00440839694656453,0.004656488549618809,-0.01831679389312732,-0.0008143310546876864,-0.001987548828124965,0.998272460937499
682,0.00440839694656453,-0.0029770992366407456,0.012217557251910843,-0.012777221679687686,0.002162841796875035,1.0012021484374989
683,-0.01085877862595458,-0.0029770992366407456,-0.0030496183206082383,-0.0032557373046876864,0.0004538574218750351,1.0085263671874989
684,0.01204198473282403,0.02755725190839743,0.004583969465651289,-0.013509643554687686,-0.003696533203124965,1.0019345703124989
685,0.00440839694656453,-0.018244274809159827,0.01985114503817037,0.0008946533203123136,-0.004673095703124965,0.999737304687499
686,0.00440839694656453,0.012290076335878336,0.004583969465651289,-0.0017908935546876864,-0.0005227050781249649,0.992413085937499
687,-0.0032251908396950246,0.004656488549618809,0.012217557251910843,-0.011556518554687686,-0.003452392578124965,0.994610351562499
688,-0.0032251908396950246,-0.010610687022900273,-0.010683206106867793,-0.0017908935546876864,-0.002719970703124965,0.997051757812499
689,-0.026125954198473633,0.004656488549618809,0.012217557251910843,-0.0005701904296876864,-0.0010109863281249649,1.0024228515624989
690,0.00440839694656453,-0.0029770992366407456,0.012217557251910843,-0.014486206054687686,-0.0007668457031249649,1.0007138671874989
691,0.00440839694656453,0.012290076335878336,0.012217557251910843,-0.0025233154296876864,-0.002231689453124965,1.0033994140624989
692,0.01204198473282403,-0.010610687022900273,0.012217557251910843,0.015543090820312314,-3.4423828124964875e-05,1.0002255859374989
693,-0.01085877862595458,-0.018244274809159827,0.01985114503817037,0.0018712158203123136,0.002651123046875035,1.0014462890624989
694,0.019675572519083584,0.004656488549618809,0.004583969465651289,-0.0037440185546876864,0.007533935546875035,0.999004882812499
695,0.00440839694656453,0.004656488549618809,0.004583969465651289,-0.008138549804687686,0.0009421386718750351,1.0029111328124989
696,0.00440839694656453,-0.0029770992366407456,-0.010683206106867793,0.0038243408203123136,-0.0007668457031249649,1.0060849609374989
697,0.01204198473282403,0.004656488549618809,0.012217557251910843,0.005045043945312314,-3.4423828124964875e-05,0.997540039062499
698,-0.0032251908396950246,-0.025877862595419354,-0.010683206106867793,-0.004964721679687686,-0.003208251953124965,1.0131650390624989
699,0.01204198473282403,-0.0029770992366407456,-0.0030496183206082383,-0.003988159179687686,-0.002719970703124965,0.997784179687499
700,0.01204198473282403,-0.010610687022900273,0.01985114503817037,0.0023594970703123136,-0.0010109863281249649,1.0136533203124989
701,-0.018492366412214134,-0.0029770992366407456,0.012217557251910843,-0.014242065429687686,0.007778076171875035,0.991680664062499
702,-0.0032251908396950246,-0.0029770992366407456,0.012217557251910843,-0.0005701904296876864,0.0019187011718750351,1.0033994140624989
703,-0.0032251908396950246,-0.018244274809159827,-0.0030496183206082383,-0.012777221679687686,-0.0017434082031249649,1.0012021484374989
704,0.00440839694656453,-0.025877862595419354,-0.0030496183206082383,0.005533325195312314,-0.018344970703124963,1.0009580078124989
705,0.01204198473282403,-0.0029770992366407456,-0.010683206106867793,-8.19091796876864e-05,-0.0005227050781249649,0.996807617187499
706,-0.0032251908396950246,-0.018244274809159827,-0.0030496183206082383,-0.0020350341796876864,0.0009421386718750351,1.0073056640624989
707,-0.0032251908396950246,-0.018244274809159827,0.012217557251910843,-0.004720581054687686,-0.0014992675781249649,0.998028320312499
708,0.00440839694656453,0.004656488549618809,0.01985114503817037,0.0011387939453123136,-0.018100830078124963,0.991924804687499
709,0.01204198473282403,0.012290076335878336,-0.0030496183206082383,0.006265747070312314,-0.005893798828124965,1.0019345703124989
710,0.00440839694656453,0.012290076335878336,0.004583969465651289,0.014322387695312314,-0.002231689453124965,1.0012021484374989
711,0.01204198473282403,0.012290076335878336,0.004583969465651289,0.0016270751953123136,-0.002964111328124965,1.0046201171874989
712,0.01204198473282403,0.02755725190839743,0.004583969465651289,-0.0010584716796876864,0.004360107421875035,0.987041992187499
713,-0.018492366412214134,-0.010610687022900273,0.01985114503817037,-0.0008143310546876864,0.0009421386718750351,1.0009580078124989
714,0.00440839694656453,-0.018244274809159827,0.01985114503817037,0.005777465820312314,0.0014304199218750351,1.0185361328124989
715,0.00440839694656453,0.004656488549618809,0.004583969465651289,0.004312622070312314,0.008022216796875035,0.996807617187499
716,0.01204198473282403,-0.018244274809159827,-0.0030496183206082383,0.0004063720703123136,-0.0017434082031249649,1.0029111328124989
717,-0.0032251908396950246,-0.0029770992366407456,0.004583969465651289,0.0030919189453123136,-0.003452392578124965,0.995586914062499
718,-0.0032251908396950246,0.004656488549618809,-0.0030496183206082383,-0.0034998779296876864,0.0019187011718750351,1.0024228515624989
719,0.00440839694656453,-0.0029770992366407456,0.004583969465651289,-0.0013026123046876864,-0.0007668457031249649,1.0031552734374989
720,0.00440839694656453,0.012290076335878336,0.004583969465651289,0.0035802001953123136,-0.002231689453124965,1.0065732421874989
721,-0.0032251908396950246,0.004656488549618809,-0.010683206106867793,-0.0032557373046876864,-0.003208251953124965,1.0009580078124989
722,-0.01085877862595458,0.004656488549618809,0.012217557251910843,-0.0010584716796876864,0.0009421386718750351,1.0021787109374989
723,-0.01085877862595458,0.004656488549618809,-0.010683206106867793,-0.0027674560546876864,-0.005649658203124965,0.997784179687499
724,0.00440839694656453,0.012290076335878336,0.012217557251910843,0.0016270751953123136,-0.0005227050781249649,1.0036435546874989
725,-0.0032251908396950246,-0.010610687022900273,0.004583969465651289,0.0013829345703123136,-3.4423828124964875e-05,0.993145507812499
726,-0.0032251908396950246,-0.0029770992366407456,0.004583969465651289,0.015543090820312314,-0.002719970703124965,0.998760742187499
727,0.00440839694656453,0.004656488549618809,0.004583969465651289,0.0030919189453123136,-0.002475830078124965,1.0004697265624989
728,-0.026125954198473633,0.01992366412213789,-0.010683206106867793,-0.003988159179687686,-0.003208251953124965,0.997784179687499
729,0.00440839694656453,-0.010610687022900273,0.012217557251910843,-0.0010584716796876864,-0.004184814453124965,0.996563476562499
730,-0.01085877862595458,-0.0029770992366407456,0.012217557251910843,-0.0022791748046876864,-0.005405517578124965,0.997540039062499
731,-0.0032251908396950246,0.012290076335878336,0.004583969465651289,-0.0013026123046876864,0.0009421386718750351,1.0065732421874989
732,0.01204198473282403,-0.0029770992366407456,0.004583969465651289,-0.0027674560546876864,-0.018589111328124963,0.995831054687499
733,0.00440839694656453,-0.010610687022900273,-0.010683206106867793,0.0026036376953123136,-0.001987548828124965,0.994122070312499
734,0.01204198473282403,0.004656488549618809,0.027484732824429925,-0.0013026123046876864,0.002406982421875035,1.0058408203124989
735,0.00440839694656453,-0.0029770992366407456,-0.010683206106867793,-0.0003260498046876864,0.009487060546875035,1.0068173828124989
736,0.01204198473282403,0.012290076335878336,0.004583969465651289,-0.0037440185546876864,0.002406982421875035,0.993877929687499
737,0.00440839694656453,0.004656488549618809,0.012217557251910843,0.004312622070312314,-0.0007668457031249649,1.0134091796874989
738,-0.0032251908396950246,-0.010610687022900273,-0.0030496183206082383,-0.0008143310546876864,-0.0017434082031249649,1.0031552734374989
739,0.00440839694656453,0.004656488549618809,-0.010683206106867793,0.004556762695312314,-0.016391845703124963,0.990704101562499
740,-0.01085877862595458,-0.0029770992366407456,-0.010683206106867793,-0.0027674560546876864,0.004115966796875035,1.0187802734374989
741,-0.01085877862595458,-0.0029770992366407456,-0.0030496183206082383,-0.005697143554687686,-0.0002785644531249649,1.0004697265624989
742,-0.0032251908396950246,-0.0029770992366407456,0.012217557251910843,0.0026036376953123136,0.003383544921875035,0.998028320312499
743,-0.0032251908396950246,0.004656488549618809,0.027484732824429925,0.005533325195312314,-0.003696533203124965,0.989483398437499
744,0.00440839694656453,0.004656488549618809,-0.010683206106867793,-0.012533081054687686,-0.003452392578124965,0.997540039062499
745,0.019675572519083584,0.004656488549618809,0.012217557251910843,0.0001622314453123136,-0.0012551269531249649,1.0019345703124989
746,-0.0032251908396950246,-0.010610687022900273,0.004583969465651289,-8.19091796876864e-05,0.0004538574218750351,0.989239257812499
747,0.01204198473282403,-0.025877862595419354,-0.0030496183206082383,0.014810668945312314,-0.0012551269531249649,1.0007138671874989
748,0.01204198473282403,-0.0029770992366407456,-0.0030496183206082383,0.006021606445312314,-0.0002785644531249649,0.996319335937499
749,0.01204198473282403,-0.010610687022900273,0.004583969465651289,0.0033360595703123136,0.0011862792968750351,1.0031552734374989
750,-0.0032251908396950246,0.004656488549618809,-0.010683206106867793,-0.0022791748046876864,-0.005893798828124965,1.0080380859374989
751,0.00440839694656453,-0.010610687022900273,-0.01831679389312732,0.0018712158203123136,0.0006979980468750351,0.991192382812499
752,-0.0032251908396950246,-0.010610687022900273,-0.0030496183206082383,0.015543090820312314,0.008022216796875035,1.0102353515624989
753,0.019675572519083584,0.01992366412213789,-0.0030496183206082383,-0.0020350341796876864,0.004848388671875035,1.0033994140624989
754,0.00440839694656453,-0.0029770992366407456,0.004583969465651289,-0.0008143310546876864,-0.003208251953124965,0.998760742187499
755,-0.0032251908396950246,-0.010610687022900273,0.004583969465651289,-0.0022791748046876864,-0.0017434082031249649,1.0043759765624989
756,0.00440839694656453,-0.0029770992366407456,0.012217557251910843,0.0013829345703123136,0.0011862792968750351,1.0009580078124989
757,-0.0032251908396950246,0.01992366412213789,0.012217557251910843,-0.0017908935546876864,-0.0010109863281249649,1.0014462890624989
758,-0.0032251908396950246,-0.0029770992366407456,0.004583969465651289,-0.0005701904296876864,0.0006979980468750351,0.997295898437499
759,-0.0032251908396950246,-0.018244274809159827,0.004583969465651289,-0.005208862304687686,0.003871826171875035,0.999981445312499
760,-0.01085877862595458,-0.018244274809159827,0.01985114503817037,-0.0008143310546876864,0.004115966796875035,0.999004882812499
761,0.00440839694656453,-0.010610687022900273,0.004583969465651289,-0.0034998779296876864,0.0004538574218750351,0.998516601562499
762,-0.01085877862595458,-0.010610687022900273,-0.0030496183206082383,0.004068481445312314,0.0019187011718750351,1.0029111328124989
763,0.00440839694656453,-0.0029770992366407456,0.012217557251910843,-0.004232299804687686,0.003627685546875035,0.998028320312499
764,0.019675572519083584,0.004656488549618809,-0.0030496183206082383,-8.19091796876864e-05,-0.005649658203124965,0.996563476562499
765,-0.0032251908396950246,-0.018244274809159827,-0.0030496183206082383,0.0004063720703123136,0.003627685546875035,0.998516601562499
766,0.01204198473282403,0.004656488549618809,0.012217557251910843,0.0013829345703123136,0.002651123046875035,1.0029111328124989
767,0.01204198473282403,0.012290076335878336,0.004583969465651289,-8.19091796876864e-05,0.003627685546875035,1.0033994140624989
768,0.01204198473282403,-0.0029770992366407456,-0.01831679389312732,0.0004063720703123136,-0.003940673828124965,1.0036435546874989
769,-0.0032251908396950246,0.004656488549618809,0.004583969465651289,0.005533325195312314,0.002895263671875035,1.0019345703124989
770,0.00440839694656453,0.01992366412213789,-0.0030496183206082383,-0.0008143310546876864,0.002406982421875035,0.998516601562499
771,0.01204198473282403,-0.010610687022900273,0.004583969465651289,0.005045043945312314,0.004848388671875035,1.0136533203124989
772,-0.018492366412214134,0.004656488549618809,-0.010683206106867793,-0.0017908935546876864,0.0009421386718750351,0.998028320312499
773,0.01204198473282403,0.004656488549618809,0.01985114503817037,0.0001622314453123136,-3.4423828124964875e-05,0.993877929687499
774,-0.0032251908396950246,-0.010610687022900273,-0.010683206106867793,0.016519653320312314,0.004360107421875035,1.0002255859374989
775,-0.026125954198473633,-0.0029770992366407456,0.004583969465651289,0.015787231445312314,-0.005405517578124965,0.997784179687499
776,0.01204198473282403,-0.0029770992366407456,0.01985114503817037,0.0030919189453123136,0.00020971679687503512,1.0024228515624989
777,-0.0032251908396950246,-0.018244274809159827,-0.0030496183206082383,-0.012288940429687686,0.004604248046875035,1.0016904296874989
778,-0.01085877862595458,0.004656488549618809,-0.0030496183206082383,0.0011387939453123136,-0.0017434082031249649,0.989727539062499
779,-0.0032251908396950246,0.012290076335878336,0.004583969465651289,-0.003988159179687686,0.0004538574218750351,1.0031552734374989
780,0.019675572519083584,0.012290076335878336,-0.0030496183206082383,-0.0030115966796876864,0.002895263671875035,1.0012021484374989
781,0.01204198473282403,-0.010610687022900273,-0.0030496183206082383,0.0030919189453123136,-0.0012551269531249649,1.0197568359374989
782,-0.01085877862595458,0.012290076335878336,-0.0030496183206082383,-0.008626831054687686,0.0016745605468750351,1.0014462890624989
783,-0.0032251908396950246,0.012290076335878336,-0.0030496183206082383,-0.014242065429687686,-0.0005227050781249649,0.997051757812499
784,-0.0032251908396950246,-0.010610687022900273,0.012217557251910843,-0.0020350341796876864,0.003627685546875035,1.0004697265624989
785,0.00440839694656453,-0.010610687022900273,0.004583969465651289,0.0008946533203123136,-0.0005227050781249649,0.990215820312499
786,0.00440839694656453,-0.0029770992366407456,0.004583969465651289,0.0004063720703123136,0.004604248046875035,1.0136533203124989
787,0.00440839694656453,-0.010610687022900273,0.012217557251910843,0.016519653320312314,0.004604248046875035,0.999737304687499
788,0.01204198473282403,-0.010610687022900273,0.004583969465651289,0.011880981445312314,-0.004673095703124965,1.0036435546874989
789,0.00440839694656453,-0.010610687022900273,0.012217557251910843,-0.0030115966796876864,-0.003696533203124965,0.999004882812499
790,0.01204198473282403,-0.0029770992366407456,0.01985114503817037,-0.004232299804687686,0.008754638671875035,1.0063291015624989
791,-0.0032251908396950246,-0.010610687022900273,0.004583969465651289,0.015787231445312314,0.004360107421875035,1.0002255859374989
792,-0.0032251908396950246,-0.0029770992366407456,0.01985114503817037,0.012369262695312314,0.0009421386718750351,0.998272460937499
793,-0.0032251908396950246,-0.018244274809159827,0.004583969465651289,-0.0010584716796876864,-0.0012551269531249649,0.999737304687499
794,-0.0032251908396950246,0.004656488549618809,0.004583969465651289,0.015543090820312314,-0.004184814453124965,1.0009580078124989
795,-0.0032251908396950246,0.012290076335878336,0.012217557251910843,-0.004476440429687686,-0.005161376953124965,1.0038876953124989
796,-0.0032251908396950246,-0.0029770992366407456,0.012217557251910843,0.0001622314453123136,0.0016745605468750351,1.0012021484374989
797,0.00440839694656453,-0.010610687022900273,0.004583969465651289,0.005777465820312314,0.0019187011718750351,0.998760742187499
798,0.019675572519083584,-0.018244274809159827,0.004583969465651289,0.0038243408203123136,-0.005405517578124965,1.0019345703124989
799,0.00440839694656453,-0.018244274809159827,0.004583969465651289,0.008951293945312314,0.005580810546875035,0.999737304687499
800,-0.018492366412214134,-0.025877862595419354,0.012217557251910843,-0.012533081054687686,-3.4423828124964875e-05,0.991924804687499
801,0.01204198473282403,-0.010610687022900273,0.012217557251910843,-0.005941284179687686,-0.0002785644531249649,0.997051757812499
802,-0.0032251908396950246,-0.0029770992366407456,0.01985114503817037,-0.0013026123046876864,-0.0010109863281249649,1.0007138671874989
803,-0.0032251908396950246,0.004656488549618809,0.004583969465651289,-0.0034998779296876864,0.0006979980468750351,0.997784179687499
804,-0.0032251908396950246,-0.018244274809159827,-0.0030496183206082383,-0.012288940429687686,0.0006979980468750351,0.999737304687499
805,-0.0032251908396950246,-0.0029770992366407456,-0.010683206106867793,-0.003988159179687686,-0.0002785644531249649,1.0146298828124989
806,0.01204198473282403,-0.010610687022900273,0.004583969465651289,0.0018712158203123136,0.0011862792968750351,1.0041318359374989
807,-0.01085877862595458,0.004656488549618809,-0.010683206106867793,0.016519653320312314,0.0014304199218750351,0.996563476562499
808,0.00440839694656453,0.02755725190839743,0.012217557251910843,0.0021153564453123136,-0.0017434082031249649,1.0121884765624989
809,-0.0032251908396950246,-0.010610687022900273,0.004583969465651289,-0.012044799804687686,0.005092529296875035,1.0033994140624989
810,0.00440839694656453,0.004656488549618809,-0.0030496183206082383,-0.0010584716796876864,-0.003940673828124965,0.999249023437499
811,0.01204198473282403,0.01992366412213789,-0.01831679389312732,0.0011387939453123136,-0.0010109863281249649,1.0019345703124989
812,-0.0032251908396950246,0.004656488549618809,0.012217557251910843,-0.014242065429687686,-0.0017434082031249649,0.999981445312499
813,0.01204198473282403,0.004656488549618809,-0.0030496183206082383,-0.005941284179687686,-0.0002785644531249649,1.0046201171874989
814,-0.01085877862595458,-0.0029770992366407456,0.004583969465651289,-0.013753784179687686,0.007533935546875035,0.998272460937499
815,-0.018492366412214134,0.012290076335878336,-0.010683206106867793,-0.0015467529296876864,0.002162841796875035,0.996319335937499
816,0.00440839694656453,0.004656488549618809,-0.010683206106867793,0.0018712158203123136,0.002406982421875035,0.998516601562499
817,-0.01085877862595458,0.004656488549618809,-0.010683206106867793,0.006509887695312314,-0.0014992675781249649,0.995342773437499
818,-0.0032251908396950246,0.012290076335878336,0.012217557251910843,-0.0008143310546876864,0.00020971679687503512,0.997784179687499
819,-0.01085877862595458,0.004656488549618809,0.004583969465651289,0.006021606445312314,0.002651123046875035,0.998272460937499
820,0.00440839694656453,-0.010610687022900273,0.01985114503817037,0.016519653320312314,0.005092529296875035,0.999981445312499
821,-0.01085877862595458,-0.0029770992366407456,-0.0030496183206082383,0.013101684570312314,0.0019187011718750351,0.994854492187499
822,0.019675572519083584,-0.025877862595419354,0.012217557251910843,-0.0017908935546876864,0.0014304199218750351,0.998516601562499
823,-0.01085877862595458,-0.0029770992366407456,0.004583969465651289,0.0008946533203123136,0.00020971679687503512,1.0024228515624989
824,-0.018492366412214134,-0.0029770992366407456,-0.010683206106867793,0.0023594970703123136,0.0004538574218750351,0.997540039062499
825,0.01204198473282403,-0.010610687022900273,0.012217557251910843,0.0021153564453123136,0.0006979980468750351,1.0051083984374989
826,-0.0032251908396950246,-0.0029770992366407456,-0.0030496183206082383,-0.013997924804687686,0.0009421386718750351,1.0024228515624989
827,-0.0032251908396950246,-0.0029770992366407456,-0.010683206106867793,0.006754028320312314,0.002895263671875035,1.0016904296874989
828,-0.0032251908396950246,-0.010610687022900273,0.012217557251910843,0.0008946533203123136,-0.0005227050781249649,0.998272460937499
829,-0.0032251908396950246,0.004656488549618809,-0.0030496183206082383,0.016031372070312314,0.0014304199218750351,0.998516601562499
830,-0.0032251908396950246,0.004656488549618809,0.004583969465651289,-0.0017908935546876864,-0.004917236328124965,1.0002255859374989
831,0.00440839694656453,0.012290076335878336,-0.0030496183206082383,0.016031372070312314,0.003627685546875035,1.0151181640624989
832,-0.0032251908396950246,-0.010610687022900273,-0.0030496183206082383,-0.012288940429687686,0.0004538574218750351,0.999981445312499
833,0.01204198473282403,-0.018244274809159827,-0.0030496183206082383,0.0013829345703123136,0.004848388671875035,1.0029111328124989
834,0.01204198473282403,-0.010610687022900273,-0.010683206106867793,0.004068481445312314,0.0011862792968750351,0.997540039062499
835,-0.0032251908396950246,0.004656488549618809,0.01985114503817037,0.011880981445312314,0.0006979980468750351,0.993877929687499
836,0.01204198473282403,-0.010610687022900273,0.004583969465651289,0.005777465820312314,-0.001987548828124965,1.0012021484374989
837,-0.01085877862595458,-0.0029770992366407456,0.012217557251910843,0.014322387695312314,0.003383544921875035,0.991924804687499
838,-0.0032251908396950246,0.012290076335878336,0.004583969465651289,-0.0008143310546876864,-0.002231689453124965,0.997051757812499
839,-0.018492366412214134,0.012290076335878336,0.012217557251910843,-0.0020350341796876864,-3.4423828124964875e-05,0.999249023437499
840,-0.018492366412214134,0.004656488549618809,0.004583969465651289,-0.0008143310546876864,-0.003208251953124965,0.999249023437499
841,0.01204198473282403,0.004656488549618809,0.004583969465651289,-0.014486206054687686,0.009242919921875035,0.995586914062499
842,-0.01085877862595458,0.012290076335878336,0.012217557251910843,-0.0005701904296876864,-0.0005227050781249649,0.991192382812499
843,0.00440839694656453,-0.0029770992366407456,-0.010683206106867793,-0.0027674560546876864,-0.0005227050781249649,1.0012021484374989
844,-0.01085877862595458,-0.010610687022900273,0.012217557251910843,0.007974731445312314,-0.002231689453124965,0.998028320312499
845,-0.0032251908396950246,0.004656488549618809,-0.010683206106867793,-0.005453002929687686,-0.0017434082031249649,1.0007138671874989
846,-0.09482824427480954,0.08099236641221422,-0.01831679389312732,0.0001622314453123136,0.002651123046875035,1.0031552734374989
847,-0.1940648854961836,-0.08694656488549571,-0.01831679389312732,-0.0003260498046876864,-0.003696533203124965,1.0068173828124989
848,0.10364503816793857,-0.1556488549618316,-0.0030496183206082383,0.004800903320312314,0.0016745605468750351,0.951641601562499
849,-0.08719465648855002,0.08099236641221422,-0.0030496183206082383,-0.011556518554687686,0.004115966796875035,1.0285458984374989
850,-0.018492366412214134,0.01992366412213789,-0.0030496183206082383,0.014322387695312314,0.008022216796875035,0.998760742187499
851,-0.01085877862595458,-0.0029770992366407456,0.004583969465651289,-0.0025233154296876864,0.002162841796875035,0.989727539062499
852,-0.03375954198473319,-0.0029770992366407456,-0.0030496183206082383,-0.0015467529296876864,-0.0014992675781249649,1.0170712890624989
853,-0.026125954198473633,-0.010610687022900273,0.027484732824429925,0.006509887695312314,-0.020053955078124963,0.998272460937499
854,-0.026125954198473633,-0.03351145038167891,-0.0030496183206082383,0.0026036376953123136,-0.001987548828124965,0.999737304687499
855,-0.026125954198473633,-0.025877862595419354,0.004583969465651289,-0.004720581054687686,-0.0002785644531249649,0.991924804687499
856,-0.0490267175572523,-0.041145038167938464,-0.0030496183206082383,-0.0032557373046876864,-0.0017434082031249649,0.997784179687499
857,-0.0490267175572523,-0.041145038167938464,-0.010683206106867793,0.012369262695312314,0.003383544921875035,1.0082822265624989
858,-0.026125954198473633,-0.06404580152671707,-0.025950381679386875,-0.012777221679687686,-0.005893798828124965,0.994610351562499
859,-0.056660305343511796,-0.056412213740457545,-0.0030496183206082383,0.0035802001953123136,-0.0010109863281249649,1.0197568359374989
860,-0.0032251908396950246,-0.06404580152671707,-0.025950381679386875,0.007242309570312314,0.0004538574218750351,1.0021787109374989
861,-0.03375954198473319,-0.06404580152671707,-0.0030496183206082383,0.0008946533203123136,-0.0010109863281249649,1.0202451171874989
862,-0.018492366412214134,-0.041145038167938464,-0.01831679389312732,0.008951293945312314,-0.003208251953124965,0.983868164062499
863,-0.0490267175572523,-0.025877862595419354,-0.010683206106867793,0.0030919189453123136,0.0009421386718750351,1.0087705078124989
864,-0.01085877862595458,-0.010610687022900273,0.004583969465651289,-0.004720581054687686,-0.0014992675781249649,1.0038876953124989
865,-0.04139312977099274,-0.025877862595419354,-0.01831679389312732,-0.0027674560546876864,-0.0010109863281249649,1.0060849609374989
866,-0.026125954198473633,-0.018244274809159827,-0.0030496183206082383,0.010904418945312314,-0.0017434082031249649,1.0051083984374989
867,-0.018492366412214134,-0.025877862595419354,0.004583969465651289,-0.0027674560546876864,0.0019187011718750351,1.0160947265624989
868,-0.01085877862595458,-0.018244274809159827,0.004583969465651289,-0.0030115966796876864,-0.0002785644531249649,0.989483398437499
869,0.00440839694656453,-0.018244274809159827,-0.010683206106867793,-0.004232299804687686,0.0009421386718750351,1.0033994140624989
870,0.00440839694656453,-0.018244274809159827,-0.0030496183206082383,-0.0005701904296876864,-0.016635986328124963,0.995831054687499
871,0.01204198473282403,-0.018244274809159827,-0.010683206106867793,-0.0032557373046876864,-0.002719970703124965,1.0158505859374989
872,-0.01085877862595458,-0.010610687022900273,-0.0030496183206082383,0.0001622314453123136,-0.004917236328124965,0.992413085937499
873,0.01204198473282403,-0.0029770992366407456,0.01985114503817037,-0.0013026123046876864,-0.002964111328124965,0.993633789062499
874,-0.01085877862595458,0.004656488549618809,0.012217557251910843,0.004068481445312314,-0.005405517578124965,0.999737304687499
875,0.01204198473282403,0.012290076335878336,-0.0030496183206082383,0.0006505126953123136,-0.0005227050781249649,1.0012021484374989
876,-0.01085877862595458,-0.018244274809159827,-0.0030496183206082383,0.007242309570312314,0.0016745605468750351,0.985333007812499
877,0.02730916030534314,0.012290076335878336,-0.0030496183206082383,-0.0017908935546876864,-0.004428955078124965,1.0041318359374989
878,0.02730916030534314,0.02755725190839743,0.01985114503817037,0.0004063720703123136,-0.002964111328124965,1.0065732421874989
879,0.04257633587786225,0.050458015267176054,0.01985114503817037,0.0035802001953123136,-0.0002785644531249649,1.0036435546874989
880,-0.0032251908396950246,0.03519083969465697,0.012217557251910843,0.0035802001953123136,0.003139404296875035,0.996319335937499
881,-0.0032251908396950246,0.01992366412213789,-0.010683206106867793,-0.0022791748046876864,-0.004428955078124965,1.0065732421874989
882,0.019675572519083584,0.04282442748091651,0.004583969465651289,0.0038243408203123136,-0.001987548828124965,0.998028320312499
883,0.019675572519083584,0.012290076335878336,0.01985114503817037,-0.0017908935546876864,-0.0017434082031249649,0.999737304687499
884,0.01204198473282403,-0.0029770992366407456,-0.0030496183206082383,0.0035802001953123136,-0.0014992675781249649,1.0117001953124989
885,0.03494274809160269,0.01992366412213789,0.004583969465651289,0.014078247070312314,0.007289794921875035,0.996075195312499
886,0.03494274809160269,-0.010610687022900273,0.01985114503817037,0.0016270751953123136,0.0011862792968750351,0.991192382812499
887,0.04257633587786225,-0.018244274809159827,0.004583969465651289,0.0008946533203123136,0.0014304199218750351,0.996807617187499
888,0.019675572519083584,0.004656488549618809,0.004583969465651289,-0.0032557373046876864,-0.0005227050781249649,1.0012021484374989
889,0.02730916030534314,-0.056412213740457545,0.01985114503817037,0.0008946533203123136,-0.0017434082031249649,1.0085263671874989
890,0.0578435114503813,-0.010610687022900273,0.012217557251910843,0.0026036376953123136,0.0011862792968750351,1.0029111328124989
891,0.04257633587786225,-0.025877862595419354,0.01985114503817037,0.0030919189453123136,-3.4423828124964875e-05,0.997295898437499
892,0.03494274809160269,-0.010610687022900273,0.012217557251910843,0.0018712158203123136,0.003383544921875035,0.992168945312499
893,0.02730916030534314,-0.025877862595419354,0.01985114503817037,0.013834106445312314,0.0009421386718750351,1.0065732421874989
894,0.02730916030534314,-0.04877862595419799,0.004583969465651289,0.012857543945312314,0.0009421386718750351,0.998028320312499
895,0.04257633587786225,-0.0029770992366407456,0.004583969465651289,0.0004063720703123136,0.005580810546875035,0.996563476562499
896,0.02730916030534314,-0.0029770992366407456,0.027484732824429925,-0.005208862304687686,0.002406982421875035,1.0029111328124989
897,0.05020992366412175,0.012290076335878336,0.01985114503817037,0.005045043945312314,-0.002231689453124965,1.0046201171874989
898,0.12654580152671718,0.06572519083969514,0.050385496183208534,0.0001622314453123136,-0.0010109863281249649,0.970928710937499
899,0.05020992366412175,0.03519083969465697,0.027484732824429925,-0.0032557373046876864,0.0006979980468750351,1.0058408203124989
900,0.00440839694656453,0.004656488549618809,0.012217557251910843,-0.0022791748046876864,0.00020971679687503512,1.0187802734374989
901,0.03494274809160269,0.01992366412213789,0.01985114503817037,-0.012288940429687686,-0.0017434082031249649,1.0043759765624989
902,0.02730916030534314,0.012290076335878336,0.012217557251910843,0.0013829345703123136,0.007289794921875035,1.0068173828124989
903,0.019675572519083584,-0.0029770992366407456,0.012217557251910843,-0.014242065429687686,0.005580810546875035,1.0053525390624989
904,0.03494274809160269,0.03519083969465697,0.004583969465651289,0.009439575195312314,-0.005161376953124965,1.0077939453124989
905,0.019675572519083584,0.01992366412213789,0.004583969465651289,-0.0020350341796876864,0.005092529296875035,0.992901367187499
906,0.02730916030534314,0.004656488549618809,0.012217557251910843,0.014810668945312314,-0.002964111328124965,1.0146298828124989
907,0.01204198473282403,-0.0029770992366407456,-0.0030496183206082383,-0.004476440429687686,0.003871826171875035,1.0077939453124989
908,-0.0032251908396950246,-0.0029770992366407456,0.004583969465651289,0.0026036376953123136,-0.003452392578124965,1.0016904296874989
909,-0.0032251908396950246,0.004656488549618809,0.004583969465651289,-0.005208862304687686,0.0004538574218750351,1.0055966796874989
910,0.00440839694656453,0.012290076335878336,0.004583969465651289,0.0038243408203123136,-0.003452392578124965,0.991924804687499
