Number,Gyro_X,Gyro_Y,Gyro_Z,Acc_X,Acc_Y,Acc_Z,MagX,MagY,MagZ
1,-0.7548732824427473,1.9826671755725191,2.1387038167938934,-0.008016796875000004,0.0035337646484375003,1.8274568603515626,0,0,0
2,0.7107755725190847,-1.650920610687023,0.6577877862595422,-0.006551953125000004,0.0010923583984375003,1.8196443603515626,0,0,0
3,-3.1212854961832055,2.2574763358778625,-1.5864870229007633,-0.008993359375000004,0.0008482177734375003,1.8208650634765626,0,0,0
4,0.2374931297709931,-0.5211496183206107,-0.12083816793893119,-0.008505078125000004,0.0020689208984375003,1.8186677978515626,0,0,0
5,-0.4037282442748084,-1.2692412213740458,-0.16663969465648845,-0.012167187500000004,0.0074400146484375,1.8201326416015626,0,0,0
6,-2.174720610687022,-2.1242030534351146,2.0623679389312977,-0.007528515625000004,0.0032896240234375003,1.8230623291015626,0,0,0
7,-1.0754839694656482,1.0971709923664124,2.245574045801527,-0.008993359375000004,0.0006040771484375003,1.8225740478515626,0,0,0
8,-1.6861709923664114,1.1277053435114504,2.3677114503816794,-0.008749218750000004,0.0023130615234375003,1.8218416259765626,0,0,0
9,-3.3808274809160297,-1.5135160305343511,4.68832213740458,-0.008260937500000004,0.0064634521484375,1.8154939697265626,0,0,0
10,-1.0907511450381673,1.2956442748091603,3.0394671755725193,-0.006063671875000004,0.0057310302734375,1.8252595947265626,0,0,0
11,-0.510598473282442,-4.429546564885496,0.7188564885496185,-0.006551953125000004,0.0032896240234375003,1.8228181884765626,0,0,0
12,-0.20525496183206032,-0.29214198473282443,2.291375572519084,-0.010946484375000004,0.0037779052734375003,1.8157381103515626,0,0,0
13,-1.426629007633587,0.2574763358778626,0.1845053435114505,-0.009481640625000004,0.0040220458984375,1.8220857666015626,0,0,0
14,-3.1365526717557244,-2.5974854961832063,3.573818320610687,-0.005575390625000004,0.0037779052734375003,1.8157381103515626,0,0,0
15,-1.228155725190839,-1.6356534351145038,2.459314503816794,-0.008505078125000004,0.0052427490234375,1.8206209228515626,0,0,0
16,-0.7396061068702282,0.30327786259541983,2.5203832061068705,-0.008749218750000004,0.0042661865234375,1.8225740478515626,0,0,0
17,1.0313862595419854,-1.3608442748091603,1.5890854961832062,-0.008016796875000004,0.0030454833984375003,1.8128084228515626,0,0,0
18,0.7413099236641228,-5.055500763358778,-0.9452656488549617,-0.008749218750000004,0.0067075927734375,1.8237947509765626,0,0,0
19,-0.22052213740457943,1.1735068702290077,2.8257267175572522,-0.007772656250000004,0.0049986083984375,1.8211092041015626,0,0,0
20,-0.9533465648854955,-4.872294656488549,1.3142763358778626,-0.010458203125000004,0.0030454833984375003,1.8191560791015626,0,0,0
21,-0.48006412213740385,-0.4906152671755725,1.2990091603053437,-0.008260937500000004,0.0052427490234375,1.8237947509765626,0,0,0
22,-2.9228122137404573,1.1277053435114504,0.19977251908396956,-0.007772656250000004,0.0013364990234375003,1.8245271728515626,0,0,0
23,-2.7548732824427473,-1.7425236641221373,0.016566412213740556,-0.007772656250000004,0.0010923583984375003,1.8176912353515626,0,0,0
24,-0.0373160305343504,1.204041221374046,0.41351297709923673,-0.007284375000000004,0.0035337646484375003,1.8245271728515626,0,0,0
25,-0.006781679389312234,5.280377099236642,2.092902290076336,-0.012655468750000004,0.0030454833984375003,1.8181795166015626,0,0,0
26,-3.243422900763358,-0.39901221374045803,4.382978625954198,-0.009481640625000004,0.0030454833984375003,1.8362459228515626,0,0,0
27,-3.106018320610686,-2.582218320610687,-0.9299984732824426,-0.010702343750000004,0.0052427490234375,1.8162263916015626,0,0,0
28,-2.724338931297709,1.433048854961832,-0.8689297709923662,0.001260546874999996,0.0035337646484375003,1.8225740478515626,0,0,0
29,-1.0144152671755717,-0.35321068702290076,-1.006334351145038,-0.006307812500000004,0.0045103271484375,1.8176912353515626,0,0,0
30,-0.9075450381679382,-1.5593175572519082,0.19977251908396956,-0.026571484375000003,0.0040220458984375,1.8172029541015626,0,0,0
31,0.5275694656488557,-3.4066458015267176,0.5661847328244276,-0.009969921875000004,0.0040220458984375,1.8247713134765626,0,0,0
32,-0.6022015267175564,-0.2768748091603053,-1.5864870229007633,-0.007284375000000004,0.0045103271484375,1.8230623291015626,0,0,0
33,-1.21288854961832,2.9903007633587784,-0.9299984732824426,-0.011678906250000004,0.0040220458984375,1.8196443603515626,0,0,0
34,-0.08311755725190767,5.005567938931298,1.6348870229007635,-0.010214062500000004,0.0067075927734375,1.8255037353515626,0,0,0
35,-1.1212854961832055,5.784193893129771,-3.3880137404580153,-0.011923046875000004,0.0028013427734375003,1.8272127197265626,0,0,0
36,-1.5640335877862588,5.585720610687023,-0.7925938931297709,-0.006796093750000004,0.0079282958984375,1.8218416259765626,0,0,0
37,-1.579300763358778,0.05900305343511449,2.0471007633587788,-0.005331250000000004,0.0054868896484375,1.8196443603515626,0,0,0
38,-0.5258656488549611,0.8528961832061068,0.5203832061068704,-0.028036328125000003,0.0013364990234375003,1.8181795166015626,0,0,0
39,-2.861743511450381,2.1353389312977096,0.642520610687023,-0.007284375000000004,0.0018247802734375003,1.8220857666015626,0,0,0
40,-1.4113618320610681,0.898697709923664,0.001299236641221474,-0.008505078125000004,0.0018247802734375003,1.8233064697265626,0,0,0
41,-1.3044916030534344,-1.4524473282442747,2.1997725190839694,-0.010214062500000004,0.0049986083984375,1.8154939697265626,0,0,0
42,1.6115389312977106,0.9292320610687023,2.6577877862595423,-0.007528515625000004,0.0064634521484375,1.8123201416015626,0,0,0
43,-0.1594534351145031,-0.4906152671755725,1.2226732824427482,-0.008016796875000004,0.0064634521484375,1.8223299072265626,0,0,0
44,-0.006781679389312234,2.181140458015267,-2.090303816793893,-0.004842968750000004,0.0079282958984375,1.8223299072265626,0,0,0
45,-2.9838809160305337,-5.070767938931297,-0.9757999999999999,-0.008993359375000004,0.0042661865234375,1.8184236572265626,0,0,0
46,0.14589007633587858,3.29564427480916,3.543283969465649,-0.005087109375000004,0.0040220458984375,1.8196443603515626,0,0,0
47,-1.579300763358778,-1.5593175572519082,1.909696183206107,-0.008505078125000004,0.0057310302734375,1.8172029541015626,0,0,0
48,-1.1518198473282435,1.8147282442748092,-0.09030381679389302,-0.007284375000000004,0.0071958740234375,1.8211092041015626,0,0,0
49,-0.8159419847328238,1.249842748091603,0.5509175572519085,-0.009481640625000004,0.0049986083984375,1.8115877197265626,0,0,0
50,0.17642442748091675,-3.0249664122137405,-1.4490824427480915,-0.011190625000000004,0.0045103271484375,1.8191560791015626,0,0,0
51,-1.0296824427480908,-0.6585541984732824,0.7493908396946566,-0.011678906250000004,0.0015806396484375003,1.8245271728515626,0,0,0
52,-1.4724305343511443,0.7154916030534351,-1.342212213740458,-0.012411328125000004,0.0052427490234375,1.8264802978515626,0,0,0
53,-1.2739572519083964,-1.2692412213740458,3.19213893129771,-0.006551953125000004,0.0057310302734375,1.8242830322265626,0,0,0
54,-2.7701404580152666,-2.53641679389313,1.909696183206107,-0.010214062500000004,0.0064634521484375,1.8211092041015626,0,0,0
55,0.2374931297709931,-1.8951954198473282,0.3219099236641223,-0.011434765625000004,0.0023130615234375003,1.8228181884765626,0,0,0
56,-1.6098351145038161,0.517018320610687,1.8180931297709924,-0.009481640625000004,0.0030454833984375003,1.8240388916015626,0,0,0
57,-1.3044916030534344,-4.689088549618321,2.3829786259541987,-0.007528515625000004,0.0037779052734375003,1.8223299072265626,0,0,0
58,-3.4724305343511443,2.4406824427480913,-2.1819068702290076,-0.011190625000000004,0.0025572021484375003,1.8225740478515626,0,0,0
59,-1.3197587786259535,-1.4677145038167938,0.9020625954198476,-0.007528515625000004,0.0047544677734375,1.8233064697265626,0,0,0
60,-0.2357893129770985,-0.3684778625954198,5.497482442748091,-0.009725781250000004,0.0067075927734375,1.8203767822265626,0,0,0
61,0.08482137404580226,0.5475526717557252,2.291375572519084,-0.008749218750000004,0.0047544677734375,1.8108552978515626,0,0,0
62,-0.5258656488549611,4.333812213740458,1.7722916030534352,-0.008993359375000004,0.0030454833984375003,1.8191560791015626,0,0,0
63,-1.4724305343511443,1.7383923664122138,2.0471007633587788,-0.006063671875000004,0.0025572021484375003,1.8215974853515626,0,0,0
64,-0.7701404580152664,0.9597664122137404,2.7341236641221376,-0.006307812500000004,0.0057310302734375,1.8181795166015626,0,0,0
65,-0.26632366412213665,4.63915572519084,-0.09030381679389302,-0.007284375000000004,0.0049986083984375,1.8225740478515626,0,0,0
66,-1.1976213740458008,0.2269419847328244,-1.891830534351145,-0.012167187500000004,0.0047544677734375,1.8228181884765626,0,0,0
67,0.14589007633587858,-3.6661877862595422,-2.5025175572519083,-0.010702343750000004,0.0045103271484375,1.8172029541015626,0,0,0
68,-1.6556366412213734,-0.6127526717557252,5.314276335877862,-0.006551953125000004,0.0049986083984375,1.8103670166015626,0,0,0
69,-1.0144152671755717,-1.3761114503816794,3.0242,-0.009725781250000004,0.0040220458984375,1.8135408447265626,0,0,0
70,-0.9686137404580146,-2.017332824427481,0.15397099236641235,-0.009237500000000004,0.0062193115234375,1.8208650634765626,0,0,0
71,-1.4724305343511443,0.30327786259541983,2.993665648854962,-0.010702343750000004,0.0040220458984375,1.8213533447265626,0,0,0
72,-0.11365190839694583,1.6467893129770994,2.7799251908396947,-0.006063671875000004,0.0045103271484375,1.8225740478515626,0,0,0
73,-0.144186259541984,-0.07840152671755726,2.993665648854962,-0.006307812500000004,0.0067075927734375,1.8179353759765626,0,0,0
74,-1.426629007633587,1.1124381679389315,2.932596946564886,-0.009237500000000004,0.0030454833984375003,1.8135408447265626,0,0,0
75,-1.2586900763358773,2.364346564885496,1.4516809160305344,-0.005819531250000004,0.0032896240234375003,1.8172029541015626,0,0,0
76,-0.5563999999999993,1.9063312977099238,-3.2506091603053435,-0.008993359375000004,0.0064634521484375,1.8189119384765626,0,0,0
77,-0.12891908396946494,-5.681454961832061,2.932596946564886,-0.011678906250000004,0.0030454833984375003,1.8164705322265626,0,0,0
78,-3.014415267175572,-0.9638977099236642,3.4974824427480917,-0.012655468750000004,0.0064634521484375,1.8198885009765626,0,0,0
79,-0.9075450381679382,-5.223439694656488,-0.18190687022900753,-0.006307812500000004,0.0025572021484375003,1.8228181884765626,0,0,0
80,-1.1670870229007626,-0.44481374045801525,1.2684748091603055,-0.005819531250000004,0.0042661865234375,1.8218416259765626,0,0,0
81,-2.70907175572519,-0.29214198473282443,1.0547343511450382,-0.007040234375000004,0.0052427490234375,1.8233064697265626,0,0,0
82,-1.1060183206106864,-3.3303099236641223,0.3219099236641223,-0.008016796875000004,0.0047544677734375,1.8240388916015626,0,0,0
83,-1.4876977099236635,0.6849572519083968,0.13870381679389324,-0.008993359375000004,0.0025572021484375003,1.8108552978515626,0,0,0
84,-2.0067816793893125,-1.5898519083969465,-1.388013740458015,-0.012411328125000004,0.0013364990234375003,1.8218416259765626,0,0,0
85,0.22222595419847402,3.7841938931297707,1.5585511450381682,-0.009481640625000004,0.0040220458984375,1.8218416259765626,0,0,0
86,-0.9686137404580146,-0.750157251908397,2.7493908396946565,-0.010214062500000004,0.0023130615234375003,1.8191560791015626,0,0,0
87,-2.693804580152671,-0.8875618320610688,0.04710076335877875,-0.008749218750000004,0.0028013427734375003,1.8240388916015626,0,0,0
88,0.9703175572519092,0.12007175572519083,0.7188564885496185,-0.008260937500000004,0.0054868896484375,1.8252595947265626,0,0,0
89,-0.6327358778625947,0.42541526717557254,0.5661847328244276,-0.005575390625000004,0.0042661865234375,1.8145174072265626,0,0,0
90,-0.44952977099236563,2.5170183206106866,2.8715282442748093,-0.007772656250000004,0.0047544677734375,1.8233064697265626,0,0,0
91,-0.28159083969465576,2.9444992366412213,2.5509175572519087,-0.006551953125000004,0.0049986083984375,1.8142732666015626,0,0,0
92,0.05428702290076409,0.8528961832061068,1.207406106870229,-0.006063671875000004,0.0064634521484375,1.8189119384765626,0,0,0
93,-0.12891908396946494,-2.5058824427480917,1.6806885496183208,-0.007040234375000004,0.0071958740234375,1.8208650634765626,0,0,0
94,-1.060216793893129,-5.879928244274809,-2.5635862595419847,-0.007528515625000004,0.0059751708984375,1.8213533447265626,0,0,0
95,0.1611572519083977,-0.750157251908397,0.3219099236641223,0.001748828124999996,0.0049986083984375,1.8218416259765626,0,0,0
96,-1.0296824427480908,3.341445801526717,1.161604580152672,-0.004842968750000004,0.0037779052734375003,1.8233064697265626,0,0,0
97,-1.6861709923664114,-1.4524473282442747,-0.42618167938931284,-0.007284375000000004,0.0040220458984375,1.8118318603515626,0,0,0
98,-0.6938045801526711,-3.086035114503817,0.9020625954198476,-0.009481640625000004,0.0052427490234375,1.8208650634765626,0,0,0
99,-0.28159083969465576,-1.7272564885496182,-2.2429755725190836,-0.006796093750000004,0.0037779052734375003,1.8223299072265626,0,0,0
100,-3.579300763358778,-2.6127526717557252,2.428780152671756,-0.011434765625000004,0.0054868896484375,1.8220857666015626,0,0,0
101,-0.5869343511450373,-1.6051190839694656,-0.5177847328244274,-0.009481640625000004,0.0052427490234375,1.8235506103515626,0,0,0
102,-1.6861709923664114,2.8528961832061066,4.611986259541984,-0.012411328125000004,0.0010923583984375003,1.8179353759765626,0,0,0
103,-0.9228122137404573,-0.21580610687022903,2.291375572519084,-0.008016796875000004,0.0047544677734375,1.8194002197265626,0,0,0
104,0.17642442748091675,2.4254152671755724,-0.5941206106870228,-0.007040234375000004,0.0035337646484375003,1.8179353759765626,0,0,0
105,0.02375267175572593,-0.3226763358778626,3.6348870229007635,-0.005575390625000004,0.0040220458984375,1.8150056884765626,0,0,0
106,-2.8159419847328238,-0.6585541984732824,-1.708624427480916,-0.008016796875000004,0.0071958740234375,1.8174470947265626,0,0,0
107,0.19169160305343586,-2.0784015267175575,1.5890854961832062,-0.010214062500000004,0.0052427490234375,1.8250154541015626,0,0,0
108,-1.6861709923664114,-0.5364167938931298,2.1845053435114505,-0.005575390625000004,0.0037779052734375003,1.8206209228515626,0,0,0
109,1.5657374045801533,-3.3455770992366416,-0.09030381679389302,-0.009969921875000004,0.0069517333984375,1.8150056884765626,0,0,0
110,0.06955419847328317,5.692590839694657,1.4364137404580155,-0.009969921875000004,0.0025572021484375003,1.8194002197265626,0,0,0
111,-0.7548732824427473,3.7536595419847325,1.3448106870229009,-0.005331250000000004,0.0030454833984375003,1.8233064697265626,0,0,0
112,0.08482137404580226,-1.6356534351145038,2.428780152671756,-0.008993359375000004,0.0013364990234375003,1.8191560791015626,0,0,0
113,-2.5411328244274802,0.27274351145038167,2.6119862595419847,-0.007772656250000004,0.0037779052734375003,1.8250154541015626,0,0,0
114,-2.327392366412213,1.2651099236641221,4.85626106870229,-0.010214062500000004,0.0062193115234375,1.8264802978515626,0,0,0
115,0.02375267175572593,-0.29214198473282443,0.44404732824427495,-0.011434765625000004,0.0049986083984375,1.8181795166015626,0,0,0
116,-1.3197587786259535,-0.3226763358778626,-1.4948839694656486,-0.010702343750000004,0.0028013427734375003,1.8194002197265626,0,0,0
117,-0.7548732824427473,3.845262595419847,3.222673282442748,-0.004354687500000004,0.0042661865234375,1.8110994384765626,0,0,0
118,-0.09838473282442672,-0.9180961832061069,0.24557404580152684,-0.008749218750000004,0.0096372802734375,1.8218416259765626,0,0,0
119,-0.7854076335877855,1.5704534351145039,-1.5712198473282442,-0.008749218750000004,0.0049986083984375,1.8167146728515626,0,0,0
120,-2.6480030534351138,0.8528961832061068,5.421146564885496,-0.008505078125000004,0.0054868896484375,1.8181795166015626,0,0,0
121,-0.09838473282442672,0.8223618320610686,3.0394671755725193,-0.009481640625000004,0.0067075927734375,1.8220857666015626,0,0,0
122,-0.7854076335877855,0.27274351145038167,1.52801679389313,-0.011190625000000004,0.0067075927734375,1.8203767822265626,0,0,0
123,-1.5640335877862588,1.2345755725190841,0.5203832061068704,-0.008749218750000004,0.0040220458984375,1.8198885009765626,0,0,0
124,-0.49533129770992296,-3.605119083969466,3.573818320610687,-0.009725781250000004,0.0069517333984375,1.8201326416015626,0,0,0
125,-1.4113618320610681,2.150606106870229,2.8715282442748093,-0.010946484375000004,0.0069517333984375,1.8206209228515626,0,0,0
126,-0.5869343511450373,1.3872473282442748,2.795192366412214,-0.011434765625000004,0.0045103271484375,1.8250154541015626,0,0,0
127,-1.38082748091603,-1.7730580152671755,0.9783984732824429,-0.009481640625000004,0.0023130615234375003,1.8228181884765626,0,0,0
128,-1.060216793893129,-1.116569465648855,2.810459541984733,-0.006307812500000004,0.0076841552734375,1.8157381103515626,0,0,0
129,-0.5716671755725184,-0.7043557251908398,5.436413740458015,-0.011923046875000004,0.0045103271484375,1.8220857666015626,0,0,0
130,-1.2434229007633582,-2.87229465648855,0.9020625954198476,-0.009237500000000004,0.0015806396484375003,1.8176912353515626,0,0,0
131,0.4665007633587793,2.4254152671755724,2.245574045801527,-0.009725781250000004,0.0023130615234375003,1.8191560791015626,0,0,0
132,-0.17472061068702216,-1.879928244274809,5.604352671755725,-0.011434765625000004,0.0067075927734375,1.8172029541015626,0,0,0
133,-1.6709038167938925,-0.7043557251908398,0.45931450381679406,-0.010946484375000004,0.0049986083984375,1.8237947509765626,0,0,0
134,-1.3655603053435108,2.6391557251908395,0.1845053435114505,-0.010214062500000004,0.0018247802734375003,1.8228181884765626,0,0,0
135,0.20695877862595494,-2.6127526717557252,-1.5864870229007633,-0.006307812500000004,0.0037779052734375003,1.8211092041015626,0,0,0
136,-0.44952977099236563,-0.8417603053435115,3.2684748091603053,-0.007284375000000004,0.0028013427734375003,1.8223299072265626,0,0,0
137,0.02375267175572593,-0.3226763358778626,2.7341236641221376,-0.010702343750000004,0.0054868896484375,1.8220857666015626,0,0,0
138,1.3977984732824433,-1.0860351145038167,-2.1819068702290076,-0.006551953125000004,0.0052427490234375,1.8169588134765626,0,0,0
139,-0.7396061068702282,-5.284508396946564,-1.0674030534351144,-0.029012890625000003,0.0028013427734375003,1.8211092041015626,0,0,0
140,-2.4037282442748085,-3.269241221374046,1.5890854961832062,-0.008993359375000004,0.0069517333984375,1.8184236572265626,0,0,0
141,0.11535572519084042,0.700224427480916,0.9325969465648856,-0.007284375000000004,0.0049986083984375,1.8167146728515626,0,0,0
142,-3.2892244274809155,-0.3074091603053435,-0.6857236641221373,-0.008260937500000004,0.0020689208984375003,1.8396638916015626,0,0,0
143,-2.9075450381679384,-0.10893587786259543,0.993665648854962,-0.006551953125000004,0.0086607177734375,1.8194002197265626,0,0,0
144,-0.3426595419847321,2.6086213740458013,-0.6551893129770991,-0.004598828125000004,0.0030454833984375003,1.8230623291015626,0,0,0
145,-1.21288854961832,0.3490793893129771,2.108169465648855,-0.008505078125000004,0.0028013427734375003,1.8242830322265626,0,0,0
146,-0.6327358778625947,-1.315042748091603,1.3448106870229009,-0.005819531250000004,0.0064634521484375,1.8106111572265626,0,0,0
147,-0.6632702290076329,-0.002065648854961846,0.1845053435114505,-0.010458203125000004,0.0049986083984375,1.8218416259765626,0,0,0
148,0.06955419847328317,-1.879928244274809,1.2684748091603055,-0.011923046875000004,0.0096372802734375,1.8252595947265626,0,0,0
149,-0.5563999999999993,2.532285496183206,1.3448106870229009,-0.008993359375000004,0.0045103271484375,1.8162263916015626,0,0,0
150,-1.6709038167938925,2.532285496183206,4.428780152671756,-0.004354687500000004,0.0064634521484375,1.8235506103515626,0,0,0
151,-2.2357893129770985,-0.26160763358778627,-1.708624427480916,-0.012167187500000004,0.0047544677734375,1.8240388916015626,0,0,0
152,-3.5182320610687015,1.6620564885496183,-2.5483190839694654,-0.007772656250000004,0.0069517333984375,1.8169588134765626,0,0,0
153,-0.6938045801526711,0.6086213740458015,-2.1666396946564883,-0.008260937500000004,0.0045103271484375,1.8257478759765626,0,0,0
154,-0.4037282442748084,-2.6890885496183206,1.161604580152672,-0.006063671875000004,0.0028013427734375003,1.8242830322265626,0,0,0
155,-0.09838473282442672,-0.3226763358778626,5.543283969465649,-0.009481640625000004,0.0006040771484375003,1.8150056884765626,0,0,0
156,-1.6861709923664114,-0.5822183206106871,2.627253435114504,-0.010946484375000004,0.0062193115234375,1.8235506103515626,0,0,0
157,-0.6938045801526711,-0.8570274809160305,3.4974824427480917,-0.004110546875000004,0.0064634521484375,1.8203767822265626,0,0,0
158,-0.11365190839694583,-0.002065648854961846,0.6883221374045803,-0.008749218750000004,-0.0001283447265624997,1.8167146728515626,0,0,0
159,-2.9991480916030526,-3.895195419847328,2.3219099236641223,-0.010458203125000004,0.0079282958984375,1.8220857666015626,0,0,0
160,-1.5640335877862588,1.1735068702290077,0.3371770992366414,-0.008993359375000004,0.0040220458984375,1.8191560791015626,0,0,0
161,-3.029682442748091,2.578087022900763,-0.4109145038167938,-0.011434765625000004,0.0042661865234375,1.8164705322265626,0,0,0
162,-1.5640335877862588,-1.86466106870229,-0.9757999999999999,-0.007284375000000004,0.0086607177734375,1.8298982666015626,0,0,0
163,-2.556399999999999,0.9292320610687023,2.291375572519084,-0.009481640625000004,0.0030454833984375003,1.8245271728515626,0,0,0
164,0.03901984732824501,1.1735068702290077,3.36007786259542,-0.007528515625000004,0.0035337646484375003,1.8242830322265626,0,0,0
165,-0.9075450381679382,-0.750157251908397,-3.6322885496183206,-0.004598828125000004,0.0064634521484375,1.8211092041015626,0,0,0
166,-1.1518198473282435,-1.6203862595419847,-1.4338152671755724,-0.010214062500000004,0.0054868896484375,1.8233064697265626,0,0,0
167,-0.08311755725190767,1.3567129770992368,5.1310702290076335,-0.007284375000000004,0.0074400146484375,1.8186677978515626,0,0,0
168,-0.5258656488549611,0.19640763358778623,1.8333603053435117,-0.009969921875000004,0.0074400146484375,1.8223299072265626,0,0,0
169,-0.6480030534351138,-6.582218320610687,0.001299236641221474,-0.011678906250000004,0.0057310302734375,1.8211092041015626,0,0,0
170,2.1306229007633597,0.47121679389312976,-1.4032809160305342,-0.008260937500000004,0.0006040771484375003,1.8191560791015626,0,0,0
171,-0.327392366412213,-2.399012213740458,3.8791618320610692,-0.008016796875000004,0.0028013427734375003,1.8167146728515626,0,0,0
172,-3.579300763358778,-0.46008091603053436,0.9783984732824429,-0.007040234375000004,0.0057310302734375,1.8303865478515626,0,0,0
173,-0.22052213740457943,-2.566951145038168,-1.708624427480916,-0.009969921875000004,0.0006040771484375003,1.8259920166015626,0,0,0
174,-1.04494961832061,3.097170992366412,-1.9528992366412212,-0.009725781250000004,0.0013364990234375003,1.8159822509765626,0,0,0
175,-1.6251022900763352,1.5704534351145039,2.932596946564886,-0.007772656250000004,0.0020689208984375003,1.8228181884765626,0,0,0
176,0.008485496183206848,3.7383923664122136,3.36007786259542,-0.006796093750000004,0.0049986083984375,1.8225740478515626,0,0,0
177,-0.327392366412213,1.0819038167938932,1.3448106870229009,-0.007772656250000004,0.0037779052734375003,1.8364900634765626,0,0,0
178,-3.5182320610687015,3.677323664122137,-1.357479389312977,-0.008749218750000004,0.0030454833984375003,1.8220857666015626,0,0,0
179,-1.6403694656488543,1.5551862595419848,4.337177099236641,-0.016317578125000003,0.0049986083984375,1.8242830322265626,0,0,0
180,-0.29685801526717487,1.9215984732824427,2.428780152671756,-0.009969921875000004,0.0076841552734375,1.8223299072265626,0,0,0
181,0.7871114503816801,-1.5593175572519082,-2.1819068702290076,-0.008505078125000004,0.0032896240234375003,1.8186677978515626,0,0,0
182,-0.7090717557251902,-3.116569465648855,-0.8689297709923662,-0.012899609375000004,0.0049986083984375,1.8213533447265626,0,0,0
183,-1.2434229007633582,-0.750157251908397,0.41351297709923673,-0.009237500000000004,0.0018247802734375003,1.8184236572265626,0,0,0
184,-1.5182320610687017,-1.0249664122137403,0.001299236641221474,-0.007284375000000004,0.0076841552734375,1.8179353759765626,0,0,0
185,-1.7167053435114497,-3.5440503816793893,-2.044502290076336,-0.006063671875000004,0.0037779052734375003,1.8176912353515626,0,0,0
186,-1.3350259541984726,3.600987786259542,3.0394671755725193,-0.006063671875000004,0.0054868896484375,1.8152498291015626,0,0,0
187,0.1611572519083977,1.5093847328244276,-0.18190687022900753,-0.010702343750000004,0.0045103271484375,1.8211092041015626,0,0,0
188,-0.6938045801526711,1.1124381679389315,-0.5941206106870228,-0.007772656250000004,0.0132993896484375,1.8235506103515626,0,0,0
189,0.17642442748091675,0.898697709923664,0.6577877862595422,-0.004110546875000004,0.0015806396484375003,1.8203767822265626,0,0,0
190,-1.9915145038167932,4.593354198473283,2.2303068702290076,-0.009237500000000004,0.0037779052734375003,1.8191560791015626,0,0,0
191,-0.44952977099236563,-0.7654244274809161,0.7493908396946566,-0.003622265625000004,0.0142759521484375,1.8269685791015626,0,0,0
192,-0.28159083969465576,0.2880106870229008,0.5509175572519085,-0.006307812500000004,0.0018247802734375003,1.8240388916015626,0,0,0
193,0.17642442748091675,-0.46008091603053436,-0.9605328244274808,-0.004842968750000004,0.0037779052734375003,1.8123201416015626,0,0,0
194,2.1306229007633597,3.081903816793893,0.42878015267175584,-0.005087109375000004,0.0052427490234375,1.8245271728515626,0,0,0
195,-3.04494961832061,-2.948630534351145,1.1310702290076338,-0.012167187500000004,0.0059751708984375,1.8164705322265626,0,0,0
196,-1.1060183206106864,0.24220916030534348,1.207406106870229,-0.006551953125000004,0.0047544677734375,1.8218416259765626,0,0,0
197,-1.060216793893129,-1.0249664122137403,-1.4032809160305342,-0.012411328125000004,0.0093931396484375,1.8281892822265626,0,0,0
198,-0.7090717557251902,3.6925908396946565,-1.8460290076335877,-0.010702343750000004,0.0040220458984375,1.8237947509765626,0,0,0
199,-0.8617435114503811,-3.2234396946564887,-1.1132045801526718,-0.006796093750000004,0.0032896240234375003,1.8203767822265626,0,0,0
200,1.321462595419848,3.1582396946564883,5.3600778625954195,-0.010702343750000004,0.0028013427734375003,1.8215974853515626,0,0,0
201,-0.7854076335877855,-2.0784015267175575,-0.3803801526717556,-0.008993359375000004,0.0045103271484375,1.8230623291015626,0,0,0
202,0.11535572519084042,0.6238885496183205,-1.9834335877862594,-0.007284375000000004,0.0018247802734375003,1.8176912353515626,0,0,0
203,-1.38082748091603,-0.29214198473282443,1.1158030534351147,-0.008993359375000004,0.00011579589843750031,1.8174470947265626,0,0,0
204,-1.1823541984732817,-1.6203862595419847,-1.0674030534351144,-0.009969921875000004,0.0096372802734375,1.8218416259765626,0,0,0
205,-2.0373160305343503,1.952132824427481,-0.18190687022900753,-0.008505078125000004,0.0040220458984375,1.8154939697265626,0,0,0
206,-0.022048854961831343,0.31854503816793894,-1.2506091603053433,-0.008993359375000004,0.0020689208984375003,1.8189119384765626,0,0,0
207,-0.22052213740457943,1.3261786259541986,0.6883221374045803,-0.011923046875000004,0.0030454833984375003,1.8279451416015626,0,0,0
208,-1.060216793893129,-1.3761114503816794,2.0165664122137406,-0.006551953125000004,0.0023130615234375003,1.8255037353515626,0,0,0
209,-0.846476335877862,1.1735068702290077,-1.1590061068702289,-0.007528515625000004,0.0059751708984375,1.8225740478515626,0,0,0
210,-2.3579267175572514,0.5628198473282442,1.4516809160305344,-0.009237500000000004,0.0045103271484375,1.8223299072265626,0,0,0
211,-0.9991480916030528,0.898697709923664,-2.5483190839694654,-0.008016796875000004,0.0045103271484375,1.8191560791015626,0,0,0
212,-3.0754839694656484,1.8605297709923665,1.4974824427480917,-0.003866406250000004,0.0047544677734375,1.8181795166015626,0,0,0
213,0.8939816793893136,-2.918096183206107,3.6196198473282446,-0.011434765625000004,0.0032896240234375003,1.8235506103515626,0,0,0
214,-1.1976213740458008,0.5780870229007633,-1.5254183206106868,-0.008505078125000004,0.0025572021484375003,1.8169588134765626,0,0,0
215,2.176424427480917,1.8147282442748092,0.7493908396946566,-0.004842968750000004,-0.0089174072265625,1.8186677978515626,0,0,0
216,-1.4418961832061061,-1.1929053435114503,2.337177099236641,-0.017538281250000003,0.0123228271484375,1.8186677978515626,0,0,0
217,-0.7548732824427473,-0.4753480916030534,-0.2124412213740457,-0.012655468750000004,0.0169614990234375,1.8172029541015626,0,0,0
218,-3.3197587786259537,0.7307587786259542,0.15397099236641235,-0.004842968750000004,0.0079282958984375,1.8269685791015626,0,0,0
219,-0.6327358778625947,5.784193893129771,1.7570244274809161,-0.002401562500000004,0.0015806396484375003,1.8223299072265626,0,0,0
220,-1.6709038167938925,0.3643465648854962,2.627253435114504,-0.003378125000000004,-0.0064760009765625,1.8223299072265626,0,0,0
221,-1.5029648854961826,-2.8417603053435117,-1.9987007633587786,-0.007772656250000004,-0.0074525634765625,1.8142732666015626,0,0,0
222,-0.4037282442748084,0.30327786259541983,2.428780152671756,-0.014364453125000004,0.0030454833984375003,1.8172029541015626,0,0,0
223,1.3519969465648862,-0.7348900763358779,1.9554977099236641,-0.011190625000000004,0.0125669677734375,1.8206209228515626,0,0,0
224,-0.17472061068702216,0.10480458015267174,2.459314503816794,-0.012655468750000004,0.0135435302734375,1.8203767822265626,0,0,0
225,-1.228155725190839,-0.2768748091603053,4.230306870229008,-0.001669140625000004,0.0291685302734375,1.8235506103515626,0,0,0
226,-1.4876977099236635,5.723125190839695,-0.8383954198473281,0.015908984374999997,0.0025572021484375003,1.8191560791015626,0,0,0
227,-1.6403694656488543,0.3948809160305344,-0.3803801526717556,-0.003378125000000004,0.0006040771484375003,1.8191560791015626,0,0,0
228,-1.793041221374045,3.3567129770992366,6.413512977099236,-0.015829296875000003,-0.0013490478515624997,1.8135408447265626,0,0,0
229,-1.228155725190839,-3.4066458015267176,2.0012992366412217,-0.021688671875000003,0.0047544677734375,1.8235506103515626,0,0,0
230,1.3672641221374053,5.46358320610687,1.2226732824427482,-0.016073437500000003,0.0064634521484375,1.8201326416015626,0,0,0
231,0.11535572519084042,3.5857206106870225,2.1997725190839694,-0.011434765625000004,0.0086607177734375,1.8289217041015626,0,0,0
232,-1.1518198473282435,-5.467714503816794,0.6883221374045803,-0.005575390625000004,0.0052427490234375,1.8189119384765626,0,0,0
233,-1.6403694656488543,2.547552671755725,4.566184732824428,-0.002157421875000004,0.0028013427734375003,1.8228181884765626,0,0,0
234,-2.7548732824427473,-1.5593175572519082,-3.14373893129771,-0.010214062500000004,0.0030454833984375003,1.8208650634765626,0,0,0
235,0.6191725190839702,-1.0096992366412214,2.1845053435114505,-0.009481640625000004,0.0008482177734375003,1.8194002197265626,0,0,0
236,-2.7701404580152666,4.730758778625955,0.9325969465648856,-0.013143750000000004,0.0037779052734375003,1.8225740478515626,0,0,0
237,-1.1823541984732817,3.4941175572519083,2.3219099236641223,-0.027548046875000003,0.0045103271484375,1.8235506103515626,0,0,0
238,-0.9533465648854955,-0.12420305343511451,0.7646580152671757,-0.011190625000000004,0.0064634521484375,1.8203767822265626,0,0,0
239,-0.3884610687022893,-2.5058824427480917,-2.7467923664122136,-0.007528515625000004,0.0054868896484375,1.8233064697265626,0,0,0
240,-1.2434229007633582,-1.7577908396946564,0.5509175572519085,-0.005087109375000004,0.0037779052734375003,1.8103670166015626,0,0,0
241,-1.2739572519083964,-1.7730580152671755,3.405879389312977,-0.014608593750000004,0.0035337646484375003,1.8198885009765626,0,0,0
242,1.2451267175572527,3.677323664122137,0.8409938931297711,-0.028524609375000003,0.0030454833984375003,1.8211092041015626,0,0,0
243,-1.426629007633587,2.349079389312977,-2.120838167938931,-0.008749218750000004,0.0057310302734375,1.8201326416015626,0,0,0
244,0.3596305343511458,-0.9028290076335879,2.1539709923664123,-0.001425000000000004,0.0069517333984375,1.8247713134765626,0,0,0
245,-3.6403694656488543,-3.650920610687023,-2.090303816793893,-0.008016796875000004,0.0023130615234375003,1.8206209228515626,0,0,0
246,-0.6480030534351138,0.9750335877862595,3.0242,-0.009237500000000004,0.0054868896484375,1.8306306884765626,0,0,0
247,-0.6327358778625947,-1.6814549618320611,0.10816946564885507,-0.009969921875000004,0.0054868896484375,1.8391756103515626,0,0,0
248,-2.9686137404580144,-1.7730580152671755,-0.273509923664122,-0.007528515625000004,0.0071958740234375,1.8274568603515626,0,0,0
249,-0.5563999999999993,-2.231073282442748,-0.3193114503816793,-0.008505078125000004,0.0045103271484375,1.8172029541015626,0,0,0
250,-1.5334992366412208,0.10480458015267174,-1.021601526717557,-0.009481640625000004,0.0018247802734375003,1.8110994384765626,0,0,0
251,-1.0296824427480908,-0.566951145038168,3.0394671755725193,-0.010458203125000004,0.0037779052734375003,1.8159822509765626,0,0,0
252,-0.25105648854961754,3.417781679389313,1.7112229007633588,-0.008749218750000004,0.0045103271484375,1.8186677978515626,0,0,0
253,1.9168824427480924,4.104804580152672,2.795192366412214,-0.008016796875000004,0.0006040771484375003,1.8208650634765626,0,0,0
254,-1.04494961832061,5.692590839694657,0.44404732824427495,-0.008749218750000004,-0.0006166259765624997,1.8242830322265626,0,0,0
255,-0.9991480916030528,-0.8875618320610688,1.3142763358778626,-0.009237500000000004,0.0028013427734375003,1.8272127197265626,0,0,0
256,-3.1518198473282437,0.6086213740458015,-2.991067175572519,-0.013387890625000004,0.0020689208984375003,1.8277010009765626,0,0,0
257,-3.0754839694656484,1.036102290076336,1.161604580152672,-0.010214062500000004,0.0049986083984375,1.8128084228515626,0,0,0
258,-1.5182320610687017,1.585720610687023,4.413512977099236,-0.010946484375000004,0.0052427490234375,1.8106111572265626,0,0,0
259,-1.0754839694656482,2.6544229007633584,3.0394671755725193,-0.008016796875000004,0.0015806396484375003,1.8230623291015626,0,0,0
260,-3.441896183206106,-2.2616076335877864,1.2684748091603055,-0.009237500000000004,0.0040220458984375,1.8162263916015626,0,0,0
261,-3.1212854961832055,2.4712167938931295,-0.5025175572519083,-0.008016796875000004,0.0049986083984375,1.8142732666015626,0,0,0
262,1.7184091603053442,-1.1013022900763358,4.993665648854962,-0.011923046875000004,0.0052427490234375,1.8225740478515626,0,0,0
263,-0.25105648854961754,1.5551862595419848,0.41351297709923673,-0.005575390625000004,0.0018247802734375003,1.8250154541015626,0,0,0
264,-1.228155725190839,4.715491603053436,1.86389465648855,-0.007528515625000004,0.0052427490234375,1.8106111572265626,0,0,0
265,-2.8770106870229,1.9674,4.85626106870229,-0.010702343750000004,0.0047544677734375,1.8250154541015626,0,0,0
266,-0.6632702290076329,1.4025145038167939,-2.090303816793893,-0.008993359375000004,0.0045103271484375,1.8194002197265626,0,0,0
267,-0.327392366412213,2.3796137404580153,3.405879389312977,-0.008260937500000004,0.0064634521484375,1.8167146728515626,0,0,0
268,-0.2357893129770985,0.6849572519083968,2.642520610687023,-0.008993359375000004,0.0059751708984375,1.8413728759765626,0,0,0
269,-1.2586900763358773,5.539919083969466,-0.6857236641221373,-0.008505078125000004,0.0042661865234375,1.8198885009765626,0,0,0
270,-1.4418961832061061,-1.0555007633587785,0.15397099236641235,-0.006307812500000004,0.0032896240234375003,1.8181795166015626,0,0,0
271,-2.8312091603053426,1.2956442748091603,3.222673282442748,-0.009969921875000004,0.0062193115234375,1.8179353759765626,0,0,0
272,-0.17472061068702216,-3.2387068702290076,1.2684748091603055,-0.012655468750000004,0.0037779052734375003,1.8169588134765626,0,0,0
273,-0.49533129770992296,-1.7272564885496182,5.573818320610687,-0.007772656250000004,0.0028013427734375003,1.8223299072265626,0,0,0
274,0.14589007633587858,-1.5745847328244273,3.5127496183206106,-0.008749218750000004,0.0015806396484375003,1.8215974853515626,0,0,0
275,-2.9075450381679384,2.410148091603053,-1.1284717557251907,-0.008016796875000004,0.0045103271484375,1.8208650634765626,0,0,0
276,-2.083117557251908,-0.44481374045801525,5.314276335877862,-0.008260937500000004,-0.0003724853515624997,1.8174470947265626,0,0,0
277,-0.43426259541984663,1.9215984732824427,1.2532076335877864,-0.008749218750000004,0.0049986083984375,1.8184236572265626,0,0,0
278,-1.38082748091603,2.95976641221374,1.6806885496183208,-0.012411328125000004,0.0047544677734375,1.8218416259765626,0,0,0
279,-2.4342625954198467,1.0819038167938932,-2.7467923664122136,-0.009237500000000004,0.0103697021484375,1.8157381103515626,0,0,0
280,0.08482137404580226,-3.7730580152671758,0.8409938931297711,-0.009481640625000004,0.0076841552734375,1.8115877197265626,0,0,0
281,-0.20525496183206032,-0.9028290076335879,0.23030687022900773,-0.008993359375000004,0.0040220458984375,1.8245271728515626,0,0,0
282,-1.0144152671755717,4.623888549618321,3.4516809160305346,-0.007284375000000004,0.0042661865234375,1.8174470947265626,0,0,0
283,-1.38082748091603,-0.7196229007633588,1.1768717557251909,-0.008260937500000004,-0.0008607666015624997,1.8176912353515626,0,0,0
284,0.6802412213740465,1.5551862595419848,-0.63992213740458,-0.009237500000000004,0.0042661865234375,1.8174470947265626,0,0,0
285,-0.9075450381679382,0.7460259541984733,0.7951923664122138,-0.010946484375000004,0.0049986083984375,1.8208650634765626,0,0,0
286,-1.5487664122137397,-0.8875618320610688,-0.45671603053435106,-0.004598828125000004,0.0069517333984375,1.8203767822265626,0,0,0
287,-0.22052213740457943,4.120071755725191,0.9325969465648856,-0.009481640625000004,0.0045103271484375,1.8194002197265626,0,0,0
288,-0.9991480916030528,1.3109114503816794,2.245574045801527,-0.008260937500000004,0.0018247802734375003,1.8208650634765626,0,0,0
289,-0.7701404580152664,-1.2387068702290076,2.6577877862595423,-0.004354687500000004,0.0015806396484375003,1.8198885009765626,0,0,0
290,-1.3350259541984726,1.9063312977099238,-0.63992213740458,-0.008749218750000004,0.0076841552734375,1.8172029541015626,0,0,0
291,0.17642442748091675,-1.3455770992366411,2.0623679389312977,-0.008260937500000004,0.0040220458984375,1.8225740478515626,0,0,0
292,-1.8235755725190832,-1.711989312977099,-2.0292351145038166,-0.007284375000000004,0.0057310302734375,1.8184236572265626,0,0,0
293,1.7336763358778633,1.433048854961832,5.497482442748091,-0.009969921875000004,0.0032896240234375003,1.8172029541015626,0,0,0
294,-1.228155725190839,2.547552671755725,1.1005358778625955,-0.006063671875000004,0.0062193115234375,1.8255037353515626,0,0,0
295,0.02375267175572593,1.3872473282442748,3.314276335877863,-0.008016796875000004,0.0091489990234375,1.8201326416015626,0,0,0
296,0.008485496183206848,-0.5058824427480916,0.41351297709923673,-0.003866406250000004,0.0067075927734375,1.8169588134765626,0,0,0
297,-3.014415267175572,0.41014809160305343,-1.0979374045801527,-0.008016796875000004,-0.0001283447265624997,1.8215974853515626,0,0,0
298,-2.2357893129770985,-0.20053893129770994,2.1845053435114505,-0.008749218750000004,0.0052427490234375,1.8208650634765626,0,0,0
299,-3.1518198473282437,-2.231073282442748,-3.6170213740458013,-0.007772656250000004,0.0037779052734375003,1.8196443603515626,0,0,0
300,-0.7090717557251902,0.24220916030534348,0.09290229007633596,-0.010946484375000004,0.0062193115234375,1.8262361572265626,0,0,0
301,-0.9228122137404573,-1.8493938931297709,-0.02923511450381669,-0.005819531250000004,0.0057310302734375,1.8252595947265626,0,0,0
302,-1.4418961832061061,3.845262595419847,-2.8841969465648853,-0.005575390625000004,0.0035337646484375003,1.8108552978515626,0,0,0
303,-1.0144152671755717,1.585720610687023,2.123436641221374,-0.012411328125000004,0.0079282958984375,1.8230623291015626,0,0,0
304,-3.441896183206106,-0.1394702290076336,3.6348870229007635,-0.009237500000000004,0.0040220458984375,1.8250154541015626,0,0,0
305,-1.793041221374045,-2.53641679389313,-0.22770839694656478,-0.010214062500000004,0.0037779052734375003,1.8186677978515626,0,0,0
306,-0.144186259541984,-0.8722946564885496,0.41351297709923673,-0.004598828125000004,0.0008482177734375003,1.8223299072265626,0,0,0
307,-3.6403694656488543,1.784193893129771,5.115803053435114,-0.005575390625000004,0.0035337646484375003,1.8201326416015626,0,0,0
308,-0.48006412213740385,-2.2921419847328246,2.3219099236641223,-0.008749218750000004,0.0057310302734375,1.8201326416015626,0,0,0
309,-0.12891908396946494,2.913964885496183,4.886795419847328,-0.010214062500000004,0.0052427490234375,1.8172029541015626,0,0,0
310,-0.17472061068702216,0.42541526717557254,0.642520610687023,-0.011678906250000004,0.0040220458984375,1.8233064697265626,0,0,0
311,-0.022048854961831343,1.433048854961832,3.482215267175573,-0.005819531250000004,0.0064634521484375,1.8272127197265626,0,0,0
312,-1.2892244274809153,0.6544229007633587,-1.9987007633587786,-0.008016796875000004,0.0067075927734375,1.8228181884765626,0,0,0
313,-0.6174687022900756,-0.18527175572519086,2.8867954198473282,-0.007040234375000004,0.0067075927734375,1.8240388916015626,0,0,0
314,-2.083117557251908,-1.0402335877862594,-3.6170213740458013,-0.006796093750000004,0.0018247802734375003,1.8191560791015626,0,0,0
315,-0.48006412213740385,-1.0402335877862594,1.7722916030534352,-0.004598828125000004,0.0049986083984375,1.8145174072265626,0,0,0
316,-3.273957251908396,0.08953740458015266,-0.02923511450381669,-0.008749218750000004,0.0045103271484375,1.8223299072265626,0,0,0
317,0.1611572519083977,1.4788503816793894,1.6806885496183208,-0.012655468750000004,0.0076841552734375,1.8230623291015626,0,0,0
318,-0.144186259541984,3.1735068702290077,3.5127496183206106,-0.006307812500000004,0.0042661865234375,1.8181795166015626,0,0,0
319,-3.609835114503816,1.4941175572519085,1.726490076335878,-0.011434765625000004,0.0040220458984375,1.8167146728515626,0,0,0
320,-0.05258320610686951,-3.9257297709923664,-4.120838167938931,-0.010214062500000004,0.0054868896484375,1.8220857666015626,0,0,0
321,-0.06785038167938856,-1.9867984732824426,3.344810687022901,-0.008749218750000004,0.0010923583984375003,1.8103670166015626,0,0,0
322,-0.7090717557251902,3.63152213740458,-0.7467923664122136,-0.009481640625000004,0.0049986083984375,1.8213533447265626,0,0,0
323,-0.3579267175572512,-1.7425236641221373,-0.05976946564885485,-0.008993359375000004,0.0054868896484375,1.8220857666015626,0,0,0
324,0.08482137404580226,-0.9791648854961833,2.1387038167938934,-0.007528515625000004,0.0032896240234375003,1.8233064697265626,0,0,0
325,-0.46479694656488474,-1.0402335877862594,1.4516809160305344,-0.008260937500000004,0.0035337646484375003,1.8218416259765626,0,0,0
326,-0.22052213740457943,-0.5364167938931298,1.6501541984732826,-0.007772656250000004,0.0025572021484375003,1.8245271728515626,0,0,0
327,-0.18998778625954127,1.3719801526717559,-1.922364885496183,-0.004110546875000004,0.0035337646484375003,1.8228181884765626,0,0,0
328,-2.7548732824427473,-1.5287832061068702,0.6730549618320611,-0.007528515625000004,0.0047544677734375,1.8223299072265626,0,0,0
329,-3.4876977099236632,2.196407633587786,4.947864122137404,-0.008505078125000004,0.0059751708984375,1.8184236572265626,0,0,0
330,-0.7701404580152664,0.16587328244274807,-0.6551893129770991,-0.008016796875000004,0.0069517333984375,1.8235506103515626,0,0,0
331,-2.846476335877862,0.333812213740458,1.0700015267175573,-0.008016796875000004,0.0042661865234375,1.8225740478515626,0,0,0
332,-2.5869343511450373,0.5933541984732824,-0.63992213740458,-0.007528515625000004,0.0018247802734375003,1.8196443603515626,0,0,0
333,-0.9228122137404573,-0.5364167938931298,-0.9757999999999999,-0.009725781250000004,0.0059751708984375,1.8230623291015626,0,0,0
334,-3.625102290076335,3.2345755725190837,0.7188564885496185,-0.007528515625000004,0.0008482177734375003,1.8184236572265626,0,0,0
335,-1.426629007633587,0.05900305343511449,0.5203832061068704,-0.006796093750000004,0.0059751708984375,1.8167146728515626,0,0,0
336,0.22222595419847402,-3.895195419847328,0.7341236641221376,-0.007772656250000004,0.0081724365234375,1.8206209228515626,0,0,0
337,0.49703511450381754,3.036102290076336,-3.708624427480916,-0.008016796875000004,0.0030454833984375003,1.8220857666015626,0,0,0
338,-0.5869343511450373,1.8299954198473283,0.1845053435114505,-0.012411328125000004,0.0067075927734375,1.8242830322265626,0,0,0
339,-0.9686137404580146,4.929232061068703,1.161604580152672,-0.010214062500000004,0.0018247802734375003,1.8159822509765626,0,0,0
340,-1.4724305343511443,2.8376290076335877,1.2990091603053437,-0.008505078125000004,0.0023130615234375003,1.8233064697265626,0,0,0
341,-2.9991480916030526,-0.8570274809160305,2.7493908396946565,-0.009481640625000004,0.0045103271484375,1.8201326416015626,0,0,0
342,-0.8922778625954191,1.585720610687023,2.474581679389313,-0.008749218750000004,0.0052427490234375,1.8179353759765626,0,0,0
343,0.008485496183206848,-1.0402335877862594,-0.02923511450381669,-0.004842968750000004,0.0069517333984375,1.8176912353515626,0,0,0
344,-0.678537404580152,-1.9715312977099235,-0.3040442748091602,-0.009969921875000004,0.0025572021484375003,1.8247713134765626,0,0,0
345,1.2451267175572527,-2.582218320610687,5.070001526717557,-0.009237500000000004,0.0032896240234375003,1.8154939697265626,0,0,0
346,-1.0754839694656482,-1.650920610687023,0.7341236641221376,-0.009725781250000004,0.0074400146484375,1.8179353759765626,0,0,0
347,-0.022048854961831343,-1.5898519083969465,-1.9528992366412212,-0.006307812500000004,0.0045103271484375,1.8223299072265626,0,0,0
348,-0.5258656488549611,-2.6738213740458017,2.1997725190839694,-0.007040234375000004,0.0074400146484375,1.8257478759765626,0,0,0
349,-1.4876977099236635,3.79946106870229,-2.3803801526717554,-0.009481640625000004,0.0054868896484375,1.8245271728515626,0,0,0
350,-1.2434229007633582,2.8070946564885495,0.04710076335877875,0.001260546874999996,-0.0001283447265624997,1.8252595947265626,0,0,0
351,1.153523664122138,-1.7730580152671755,2.4440473282442747,-0.008749218750000004,0.0049986083984375,1.8259920166015626,0,0,0
352,-1.3655603053435108,3.2345755725190837,0.24557404580152684,-0.009725781250000004,0.0047544677734375,1.8223299072265626,0,0,0
353,-1.2739572519083964,-1.8341267175572518,4.337177099236641,-0.009725781250000004,0.0025572021484375003,1.8191560791015626,0,0,0
354,0.17642442748091675,-3.2387068702290076,-2.0139679389312977,-0.003622265625000004,0.0074400146484375,1.8220857666015626,0,0,0
355,-0.9686137404580146,0.7460259541984733,0.8715282442748093,-0.010214062500000004,0.0040220458984375,1.8401521728515626,0,0,0
356,-0.6480030534351138,-1.3608442748091603,2.3677114503816794,-0.008016796875000004,0.0010923583984375003,1.8386873291015626,0,0,0
357,0.6649740458015274,3.097170992366412,3.2684748091603053,-0.006551953125000004,0.0023130615234375003,1.8215974853515626,0,0,0
358,-0.3731938931297703,1.2345755725190841,-1.7544259541984732,-0.010214062500000004,0.0052427490234375,1.8110994384765626,0,0,0
359,-0.7396061068702282,-0.39901221374045803,-1.9681664122137403,-0.009969921875000004,0.0040220458984375,1.8245271728515626,0,0,0
360,-0.312125190839694,0.7612931297709923,1.4822152671755726,-0.005819531250000004,0.0020689208984375003,1.8203767822265626,0,0,0
361,1.0619206106870236,0.1353389312977099,0.6883221374045803,-0.004842968750000004,0.0037779052734375003,1.8191560791015626,0,0,0
362,-1.5640335877862588,3.2345755725190837,3.6501541984732824,-0.007284375000000004,0.0045103271484375,1.8184236572265626,0,0,0
363,0.22222595419847402,-3.5745847328244276,-0.7009908396946564,-0.007040234375000004,0.0010923583984375003,1.8206209228515626,0,0,0
364,-0.43426259541984663,1.0819038167938932,-0.7467923664122136,-0.011678906250000004,0.0064634521484375,1.8237947509765626,0,0,0
365,-2.6022015267175567,1.3719801526717559,0.24557404580152684,-0.007284375000000004,-0.0003724853515624997,1.8211092041015626,0,0,0
366,-2.9686137404580144,3.7383923664122136,1.4058793893129773,-0.009969921875000004,0.0037779052734375003,1.8206209228515626,0,0,0
367,-0.7243389312977091,0.150606106870229,-1.723891603053435,-0.013632031250000004,0.0071958740234375,1.8240388916015626,0,0,0
368,-2.6022015267175567,-1.9409969465648855,5.314276335877862,-0.004110546875000004,0.0049986083984375,1.8206209228515626,0,0,0
369,-0.6632702290076329,-1.650920610687023,-1.9528992366412212,-0.008749218750000004,0.0079282958984375,1.8255037353515626,0,0,0
370,-0.9228122137404573,-0.750157251908397,-0.02923511450381669,-0.008749218750000004,0.0047544677734375,1.8211092041015626,0,0,0
371,-0.7243389312977091,-1.2387068702290076,-2.1819068702290076,-0.008016796875000004,0.0045103271484375,1.8220857666015626,0,0,0
372,-0.5411328244274802,0.2574763358778626,0.5203832061068704,-0.010214062500000004,0.0035337646484375003,1.8213533447265626,0,0,0
373,-1.945712977099236,1.8299954198473283,1.4822152671755726,-0.011434765625000004,0.0049986083984375,1.8228181884765626,0,0,0
374,-1.228155725190839,-0.3226763358778626,0.13870381679389324,-0.007772656250000004,0.0032896240234375003,1.8223299072265626,0,0,0
375,-0.12891908396946494,-1.6356534351145038,1.1158030534351147,-0.009725781250000004,0.0064634521484375,1.8250154541015626,0,0,0
376,0.08482137404580226,-0.750157251908397,-0.013967938931297608,-0.006796093750000004,0.0023130615234375003,1.8250154541015626,0,0,0
377,-0.28159083969465576,-0.7348900763358779,1.4058793893129773,-0.012655468750000004,0.0037779052734375003,1.8374666259765626,0,0,0
378,-1.4724305343511443,-1.2692412213740458,0.6577877862595422,-0.010214062500000004,0.0047544677734375,1.8220857666015626,0,0,0
379,-1.4724305343511443,-0.6890885496183207,0.8409938931297711,-0.007528515625000004,0.0013364990234375003,1.8196443603515626,0,0,0
380,-0.9228122137404573,-0.5974854961832061,0.13870381679389324,-0.008505078125000004,0.0020689208984375003,1.8191560791015626,0,0,0
381,2.0695541984732833,3.4941175572519083,2.9173297709923665,-0.008993359375000004,0.0042661865234375,1.8208650634765626,0,0,0
382,2.1458900763358786,1.2651099236641221,-1.4032809160305342,-0.006796093750000004,0.0057310302734375,1.8257478759765626,0,0,0
383,-1.21288854961832,0.05900305343511449,3.390612213740458,-0.007284375000000004,0.0028013427734375003,1.8164705322265626,0,0,0
384,-1.4418961832061061,0.898697709923664,-2.945265648854962,-0.006551953125000004,0.0010923583984375003,1.8213533447265626,0,0,0
385,1.2909282442748098,-0.5516839694656489,-0.9605328244274808,-0.007528515625000004,0.0064634521484375,1.8150056884765626,0,0,0
386,0.14589007633587858,-1.9409969465648855,-1.4796167938931297,-0.007772656250000004,0.0047544677734375,1.8181795166015626,0,0,0
387,-1.228155725190839,-1.482981679389313,0.2913755725190841,-0.010458203125000004,0.0003599365234375003,1.8215974853515626,0,0,0
388,-3.4876977099236632,0.9750335877862595,3.176871755725191,-0.009481640625000004,0.0054868896484375,1.8208650634765626,0,0,0
389,-0.43426259541984663,0.7765603053435114,-2.120838167938931,-0.010946484375000004,0.0045103271484375,1.8240388916015626,0,0,0
390,-1.4113618320610681,-4.108935877862595,-1.7544259541984732,-0.006307812500000004,0.0054868896484375,1.8201326416015626,0,0,0
391,-0.9075450381679382,-5.742523664122137,-1.1132045801526718,-0.000692578125000004,0.0059751708984375,1.8259920166015626,0,0,0
392,-0.327392366412213,-0.4906152671755725,-0.7009908396946564,-0.009237500000000004,0.0057310302734375,1.8233064697265626,0,0,0
393,-0.43426259541984663,-3.9257297709923664,1.909696183206107,-0.011923046875000004,0.0071958740234375,1.8230623291015626,0,0,0
394,-0.22052213740457943,0.7765603053435114,2.932596946564886,-0.008505078125000004,0.0003599365234375003,1.8245271728515626,0,0,0
395,-1.4113618320610681,-0.5058824427480916,-1.891830534351145,-0.007284375000000004,0.00011579589843750031,1.8267244384765626,0,0,0
396,-3.5487664122137397,-1.482981679389313,2.1997725190839694,-0.009725781250000004,0.0013364990234375003,1.8179353759765626,0,0,0
397,0.1611572519083977,0.24220916030534348,-2.1055709923664123,-0.007772656250000004,0.0071958740234375,1.8237947509765626,0,0,0
398,-3.5945679389312972,-1.7272564885496182,0.5661847328244276,-0.010214062500000004,0.0037779052734375003,1.8176912353515626,0,0,0
399,-0.0373160305343504,1.7078580152671756,-1.2200748091603053,-0.012411328125000004,0.0032896240234375003,1.8189119384765626,0,0,0
400,0.02375267175572593,0.8681633587786259,2.9478641221374047,-0.009969921875000004,0.0049986083984375,1.8242830322265626,0,0,0
401,-1.7014381679389305,0.9903007633587785,0.9783984732824429,0.001748828124999996,0.0045103271484375,1.8218416259765626,0,0,0
402,-0.5258656488549611,-3.605119083969466,-0.09030381679389302,-0.007040234375000004,0.0059751708984375,1.8167146728515626,0,0,0
403,-1.1365526717557246,0.27274351145038167,1.2226732824427482,-0.008749218750000004,0.0049986083984375,1.8213533447265626,0,0,0
404,-1.0754839694656482,-0.9028290076335879,3.36007786259542,-0.006063671875000004,0.0010923583984375003,1.8233064697265626,0,0,0
405,-1.6709038167938925,-1.4219129770992365,1.2226732824427482,-0.012167187500000004,0.0018247802734375003,1.8208650634765626,0,0,0
406,-1.945712977099236,1.768926717557252,1.039467175572519,-0.009237500000000004,0.0069517333984375,1.8184236572265626,0,0,0
407,-1.060216793893129,3.79946106870229,-3.1742732824427478,-0.013632031250000004,0.0025572021484375003,1.8215974853515626,0,0,0
408,0.008485496183206848,-1.9409969465648855,5.222673282442748,-0.006307812500000004,0.0093931396484375,1.8213533447265626,0,0,0
409,-2.342659541984732,3.0666366412213737,1.1158030534351147,-0.010458203125000004,0.0047544677734375,1.8198885009765626,0,0,0
410,0.22222595419847402,-1.6203862595419847,-0.7925938931297709,-0.010214062500000004,0.0040220458984375,1.8218416259765626,0,0,0
411,-1.5640335877862588,-0.002065648854961846,0.8867954198473285,-0.010946484375000004,0.0052427490234375,1.8233064697265626,0,0,0
412,-0.7701404580152664,-1.650920610687023,2.6577877862595423,-0.010946484375000004,0.0054868896484375,1.8255037353515626,0,0,0
413,-1.0296824427480908,3.29564427480916,-0.5483190839694655,-0.006796093750000004,0.0028013427734375003,1.8245271728515626,0,0,0
414,0.02375267175572593,-1.498248854961832,-1.2811435114503815,-0.008505078125000004,0.0023130615234375003,1.8157381103515626,0,0,0
415,-1.3655603053435108,-0.17000458015267178,2.6883221374045805,-0.006796093750000004,0.0047544677734375,1.8242830322265626,0,0,0
416,-1.2739572519083964,1.2956442748091603,0.7188564885496185,-0.004598828125000004,0.0069517333984375,1.8169588134765626,0,0,0
417,-1.3655603053435108,-1.3455770992366411,1.6196198473282444,-0.005087109375000004,0.0015806396484375003,1.8162263916015626,0,0,0
418,-0.49533129770992296,-0.29214198473282443,-0.09030381679389302,-0.008749218750000004,0.0054868896484375,1.8179353759765626,0,0,0
419,-0.2357893129770985,1.8605297709923665,0.04710076335877875,-0.006551953125000004,0.0054868896484375,1.8252595947265626,0,0,0
420,-0.7396061068702282,1.051369465648855,0.13870381679389324,-0.009237500000000004,0.0040220458984375,1.8203767822265626,0,0,0
421,-3.4266290076335872,0.7765603053435114,2.428780152671756,-0.009237500000000004,0.0032896240234375003,1.8215974853515626,0,0,0
422,-0.05258320610686951,-5.467714503816794,0.9325969465648856,-0.006551953125000004,0.0081724365234375,1.8162263916015626,0,0,0
423,-2.8159419847328238,1.249842748091603,-2.1361053435114505,-0.009481640625000004,0.0020689208984375003,1.8220857666015626,0,0,0
424,0.05428702290076409,0.8223618320610686,-2.120838167938931,-0.011190625000000004,0.0040220458984375,1.8218416259765626,0,0,0
425,-1.6403694656488543,1.5246519083969465,-0.18190687022900753,-0.008016796875000004,0.0030454833984375003,1.8218416259765626,0,0,0
426,-0.28159083969465576,2.79182748091603,-0.9299984732824426,-0.009237500000000004,0.0057310302734375,1.8213533447265626,0,0,0
427,-0.6022015267175564,-0.566951145038168,3.6654213740458017,-0.006796093750000004,0.0057310302734375,1.8245271728515626,0,0,0
428,-0.7396061068702282,0.5322854961832061,0.016566412213740556,-0.008016796875000004,-0.0003724853515624997,1.8215974853515626,0,0,0
429,-3.060216793893129,2.730758778625954,1.4822152671755726,-0.006307812500000004,0.0049986083984375,1.8172029541015626,0,0,0
430,0.9855847328244283,-1.2387068702290076,2.6577877862595423,-0.005575390625000004,0.0013364990234375003,1.8181795166015626,0,0,0
431,-1.2892244274809153,3.9215984732824425,-3.204807633587786,-0.005331250000000004,-0.0001283447265624997,1.8150056884765626,0,0,0
432,-0.28159083969465576,3.3719801526717554,-0.07503664122137393,-0.006796093750000004,0.0049986083984375,1.8189119384765626,0,0,0
433,-2.464796946564885,-0.2310732824427481,-0.7467923664122136,-0.008505078125000004,0.0020689208984375003,1.8174470947265626,0,0,0
434,-0.28159083969465576,-2.2616076335877864,0.13870381679389324,-0.005331250000000004,0.0032896240234375003,1.8267244384765626,0,0,0
435,-0.22052213740457943,-0.03260000000000001,-0.273509923664122,-0.011190625000000004,0.0062193115234375,1.8228181884765626,0,0,0
436,-0.48006412213740385,3.097170992366412,0.42878015267175584,-0.011678906250000004,0.0040220458984375,1.8242830322265626,0,0,0
437,1.687874809160306,1.6315221374045803,2.596719083969466,-0.010458203125000004,0.0025572021484375003,1.8211092041015626,0,0,0
438,-0.48006412213740385,-1.2997755725190838,1.9860320610687023,-0.009481640625000004,0.0010923583984375003,1.8189119384765626,0,0,0
439,-0.8770106870229002,1.8147282442748092,3.543283969465649,-0.007772656250000004,0.0040220458984375,1.8123201416015626,0,0,0
440,-0.006781679389312234,-3.5440503816793893,0.45931450381679406,-0.008016796875000004,0.0067075927734375,1.8120760009765626,0,0,0
441,-2.9228122137404573,5.020835114503817,1.1768717557251909,-0.007528515625000004,0.0074400146484375,1.8218416259765626,0,0,0
442,-0.09838473282442672,3.6925908396946565,0.3524442748091604,-0.009969921875000004,0.0064634521484375,1.8211092041015626,0,0,0
443,-1.0144152671755717,0.6238885496183205,-0.991067175572519,-0.007528515625000004,0.0047544677734375,1.8267244384765626,0,0,0
444,-0.3579267175572512,3.2040412213740455,-2.0292351145038166,-0.008993359375000004,0.0079282958984375,1.8335603759765626,0,0,0
445,-1.5182320610687017,1.1429725190839695,-0.04450229007633577,-0.010214062500000004,0.0062193115234375,1.8247713134765626,0,0,0
446,-2.083117557251908,-0.17000458015267178,2.993665648854962,-0.009237500000000004,0.0035337646484375003,1.8184236572265626,0,0,0
447,-1.4876977099236635,6.425415267175572,-0.19717404580152662,-0.010214062500000004,0.0025572021484375003,1.8269685791015626,0,0,0
448,-1.5487664122137397,-1.711989312977099,-0.04450229007633577,-0.009237500000000004,0.0032896240234375003,1.8215974853515626,0,0,0
449,-1.9304458015267167,-1.0860351145038167,-0.7009908396946564,-0.008505078125000004,0.0059751708984375,1.8179353759765626,0,0,0
450,-2.663270229007633,2.562819847328244,1.36007786259542,-0.009237500000000004,0.0042661865234375,1.8186677978515626,0,0,0
451,-1.3655603053435108,0.9903007633587785,-0.3803801526717556,-0.008993359375000004,0.0030454833984375003,1.8203767822265626,0,0,0
452,-3.3808274809160297,4.211674809160305,-2.456716030534351,-0.009481640625000004,0.0025572021484375003,1.8184236572265626,0,0,0
453,-0.8617435114503811,1.3261786259541986,1.1158030534351147,-0.010458203125000004,0.0047544677734375,1.8242830322265626,0,0,0
454,-0.3731938931297703,1.3567129770992368,1.1310702290076338,-0.008993359375000004,0.0071958740234375,1.8189119384765626,0,0,0
455,-0.29685801526717487,-0.8570274809160305,1.924963358778626,-0.009237500000000004,0.0069517333984375,1.8245271728515626,0,0,0
456,-1.3655603053435108,1.204041221374046,0.5203832061068704,-0.007284375000000004,0.0042661865234375,1.8186677978515626,0,0,0
457,-0.8312091603053429,-1.6203862595419847,3.1158030534351147,-0.009969921875000004,0.0028013427734375003,1.8206209228515626,0,0,0
458,1.7794778625954206,-2.3837450381679393,0.7188564885496185,-0.006307812500000004,0.0071958740234375,1.8174470947265626,0,0,0
459,-0.6632702290076329,-1.2845083969465647,2.245574045801527,-0.009725781250000004,0.0045103271484375,1.8152498291015626,0,0,0
460,-0.49533129770992296,0.16587328244274807,0.0623679389312978,-0.010214062500000004,0.0025572021484375003,1.8167146728515626,0,0,0
461,0.11535572519084042,-1.5135160305343511,4.52038320610687,-0.009237500000000004,0.0059751708984375,1.8176912353515626,0,0,0
462,-1.4418961832061061,-1.131836641221374,0.7951923664122138,-0.008260937500000004,0.0035337646484375003,1.8230623291015626,0,0,0
463,-1.6251022900763352,-0.4142793893129771,0.45931450381679406,-0.004842968750000004,0.0057310302734375,1.8223299072265626,0,0,0
464,-3.014415267175572,-2.5974854961832063,-1.1132045801526718,-0.010458203125000004,0.0010923583984375003,1.8198885009765626,0,0,0
465,0.10008854961832134,1.5093847328244276,0.6883221374045803,-0.010702343750000004,0.0040220458984375,1.8201326416015626,0,0,0
466,-1.4113618320610681,-5.421912977099236,0.47458167938931306,-0.003378125000000004,0.0067075927734375,1.8242830322265626,0,0,0
467,0.5581038167938939,-5.5898519083969465,-0.5635862595419846,-0.009725781250000004,0.0037779052734375003,1.8174470947265626,0,0,0
468,-0.4037282442748084,-2.490615267175573,3.2532076335877864,-0.008749218750000004,0.0079282958984375,1.8211092041015626,0,0,0
469,-0.9228122137404573,3.845262595419847,0.24557404580152684,-0.009237500000000004,0.0076841552734375,1.8157381103515626,0,0,0
470,-2.0678503816793885,1.4483160305343512,2.6577877862595423,-0.009237500000000004,0.0023130615234375003,1.8167146728515626,0,0,0
471,-3.579300763358778,-1.4219129770992365,-1.4948839694656486,-0.010946484375000004,0.0047544677734375,1.8218416259765626,0,0,0
472,-0.6632702290076329,-1.8341267175572518,-1.2506091603053433,-0.009725781250000004,0.0049986083984375,1.8125642822265626,0,0,0
473,-1.8541099236641214,-4.902829007633588,0.3219099236641223,-0.005819531250000004,0.0064634521484375,1.8391756103515626,0,0,0
474,-0.9991480916030528,1.2345755725190841,2.840993893129771,-0.006551953125000004,0.0064634521484375,1.8181795166015626,0,0,0
475,-0.8312091603053429,-0.6585541984732824,2.077635114503817,-0.004110546875000004,0.00011579589843750031,1.8218416259765626,0,0,0
476,-0.8159419847328238,-1.315042748091603,-1.4796167938931297,-0.009725781250000004,0.0045103271484375,1.8184236572265626,0,0,0
477,-0.3426595419847321,5.387247328244275,2.1539709923664123,-0.007040234375000004,0.0069517333984375,1.8198885009765626,0,0,0
478,-0.2357893129770985,-2.399012213740458,-3.754425954198473,-0.008260937500000004,0.0006040771484375003,1.8159822509765626,0,0,0
479,0.05428702290076409,2.486483969465649,0.5814519083969467,-0.010702343750000004,0.0028013427734375003,1.8206209228515626,0,0,0
480,-1.1976213740458008,-0.2310732824427481,2.993665648854962,-0.006796093750000004,0.0030454833984375003,1.8218416259765626,0,0,0
481,-0.3731938931297703,-0.39901221374045803,0.993665648854962,-0.005331250000000004,0.0030454833984375003,1.8228181884765626,0,0,0
482,-0.5563999999999993,-1.9104625954198473,-0.8689297709923662,-0.004842968750000004,0.0062193115234375,1.8152498291015626,0,0,0
483,-1.426629007633587,-2.948630534351145,-0.8383954198473281,-0.009969921875000004,0.0028013427734375003,1.8213533447265626,0,0,0
484,1.7947450381679395,2.6544229007633584,-0.09030381679389302,-0.005819531250000004,0.0064634521484375,1.8235506103515626,0,0,0
485,-0.846476335877862,3.7383923664122136,4.749390839694656,-0.006307812500000004,0.0028013427734375003,1.8147615478515626,0,0,0
486,-1.5640335877862588,-0.2768748091603053,-0.04450229007633577,-0.008260937500000004,0.0052427490234375,1.8225740478515626,0,0,0
487,-0.44952977099236563,0.5475526717557252,0.23030687022900773,-0.005087109375000004,0.0081724365234375,1.8179353759765626,0,0,0
488,-0.25105648854961754,0.8376290076335877,2.474581679389313,-0.006551953125000004,0.0025572021484375003,1.8218416259765626,0,0,0
489,-1.2586900763358773,-0.4142793893129771,-0.5483190839694655,-0.008993359375000004,0.0042661865234375,1.8255037353515626,0,0,0
490,-1.2739572519083964,-1.7272564885496182,3.36007786259542,-0.008260937500000004,0.0010923583984375003,1.8179353759765626,0,0,0
491,0.11535572519084042,-3.7577908396946564,-1.5712198473282442,-0.008505078125000004,0.0023130615234375003,1.8381990478515626,0,0,0
492,-0.44952977099236563,-1.8493938931297709,-1.7544259541984732,-0.005575390625000004,0.0010923583984375003,1.8203767822265626,0,0,0
493,-0.6480030534351138,1.6315221374045803,1.36007786259542,-0.007284375000000004,0.00011579589843750031,1.8198885009765626,0,0,0
494,-1.7014381679389305,-1.2081725190839694,-0.5025175572519083,-0.009725781250000004,0.0037779052734375003,1.8184236572265626,0,0,0
495,-3.396094656488549,0.4864839694656488,-2.1819068702290076,-0.008993359375000004,0.0040220458984375,1.8196443603515626,0,0,0
496,-0.43426259541984663,2.364346564885496,-1.4338152671755724,-0.008749218750000004,0.0010923583984375003,1.8152498291015626,0,0,0
497,-0.7090717557251902,-0.10893587786259543,-1.891830534351145,-0.006551953125000004,0.0003599365234375003,1.8225740478515626,0,0,0
498,-3.4724305343511443,0.5017511450381679,1.6196198473282444,-0.010214062500000004,0.0086607177734375,1.8252595947265626,0,0,0
499,-0.29685801526717487,3.219308396946565,3.4516809160305346,-0.007528515625000004,0.0042661865234375,1.8186677978515626,0,0,0
500,1.4130656488549624,-2.7196229007633588,-2.1361053435114505,-0.010458203125000004,0.0049986083984375,1.8191560791015626,0,0,0
501,-0.4037282442748084,-1.3913786259541985,4.153970992366412,-0.007528515625000004,0.0030454833984375003,1.8198885009765626,0,0,0
502,-0.3884610687022893,-3.116569465648855,1.207406106870229,-0.009969921875000004,0.0008482177734375003,1.8125642822265626,0,0,0
503,-0.49533129770992296,1.0666366412213741,2.0165664122137406,-0.003866406250000004,0.0062193115234375,1.8218416259765626,0,0,0
504,1.107722137404581,-1.131836641221374,2.7035893129770994,-0.012899609375000004,0.0035337646484375003,1.8191560791015626,0,0,0
505,-2.0373160305343503,1.8452625954198474,-1.2048076335877862,-0.006796093750000004,0.0064634521484375,1.8211092041015626,0,0,0
506,-3.2892244274809155,3.3109114503816794,1.6806885496183208,-0.007040234375000004,0.0040220458984375,1.8240388916015626,0,0,0
507,-0.6632702290076329,2.1353389312977096,1.7112229007633588,-0.011434765625000004,0.0047544677734375,1.8198885009765626,0,0,0
508,-0.4037282442748084,0.18114045801526715,2.092902290076336,-0.008016796875000004,0.0059751708984375,1.8181795166015626,0,0,0
509,-0.9228122137404573,1.6925908396946565,3.1616045801526718,-0.008505078125000004,0.0047544677734375,1.8220857666015626,0,0,0
510,-0.5563999999999993,-3.437180152671756,-3.021601526717557,-0.010214062500000004,0.0049986083984375,1.8186677978515626,0,0,0
511,-1.960980152671755,-0.9486305343511451,2.276108396946565,-0.008016796875000004,0.0040220458984375,1.8113435791015626,0,0,0
512,-1.3655603053435108,-0.46008091603053436,2.4898488549618323,-0.008505078125000004,0.0042661865234375,1.8242830322265626,0,0,0
513,-0.3426595419847321,-2.6432870229007634,0.825726717557252,-0.009237500000000004,0.0010923583984375003,1.8384431884765626,0,0,0
514,-0.9228122137404573,-3.7119893129770993,0.5661847328244276,-0.008016796875000004,0.0047544677734375,1.8206209228515626,0,0,0
515,-0.510598473282442,1.3414458015267177,-1.2048076335877862,-0.009237500000000004,0.0067075927734375,1.8220857666015626,0,0,0
516,-1.2739572519083964,-0.5058824427480916,0.9783984732824429,-0.006307812500000004,0.0040220458984375,1.8223299072265626,0,0,0
517,0.008485496183206848,-1.69672213740458,-2.273509923664122,-0.009481640625000004,0.0008482177734375003,1.8218416259765626,0,0,0
518,-0.6174687022900756,3.1429725190839695,-0.8841969465648853,-0.004842968750000004,0.0025572021484375003,1.8159822509765626,0,0,0
519,0.11535572519084042,0.8528961832061068,2.6119862595419847,-0.006307812500000004,0.0035337646484375003,1.8157381103515626,0,0,0
520,-1.4724305343511443,0.41014809160305343,-1.0521358778625953,-0.011678906250000004,0.0069517333984375,1.8208650634765626,0,0,0
521,-0.7396061068702282,2.4712167938931295,5.573818320610687,-0.003622265625000004,0.0057310302734375,1.8215974853515626,0,0,0
522,-1.6861709923664114,1.0666366412213741,0.8715282442748093,-0.007528515625000004,0.0086607177734375,1.8191560791015626,0,0,0
523,-1.8235755725190832,-0.3684778625954198,-2.1819068702290076,-0.006307812500000004,0.0062193115234375,1.8208650634765626,0,0,0
524,-2.9533465648854955,0.028468702290076323,2.2303068702290076,-0.009237500000000004,0.0076841552734375,1.8186677978515626,0,0,0
525,-0.08311755725190767,-0.5516839694656489,1.4058793893129773,-0.008260937500000004,0.0045103271484375,1.8281892822265626,0,0,0
526,-0.8617435114503811,-0.3226763358778626,-0.6857236641221373,-0.010214062500000004,0.0032896240234375003,1.8201326416015626,0,0,0
527,-3.3502931297709915,3.3261786259541983,-1.4796167938931297,-0.008260937500000004,0.0037779052734375003,1.8218416259765626,0,0,0
528,0.1611572519083977,-1.116569465648855,-1.6170213740458015,-0.009237500000000004,0.0042661865234375,1.8186677978515626,0,0,0
529,-0.48006412213740385,0.16587328244274807,1.86389465648855,-0.010702343750000004,0.0018247802734375003,1.8233064697265626,0,0,0
530,-0.4037282442748084,-1.498248854961832,3.894429007633588,-0.008993359375000004,0.0035337646484375003,1.8189119384765626,0,0,0
531,-0.18998778625954127,-1.2387068702290076,0.8867954198473285,-0.007284375000000004,0.0025572021484375003,1.8235506103515626,0,0,0
532,-0.6022015267175564,-3.070767938931298,1.2226732824427482,-0.010458203125000004,0.0028013427734375003,1.8181795166015626,0,0,0
533,-1.060216793893129,-0.9944320610687023,1.8333603053435117,-0.008993359375000004,0.0015806396484375003,1.8211092041015626,0,0,0
534,-2.0067816793893125,-0.7654244274809161,-0.04450229007633577,-0.006551953125000004,0.0040220458984375,1.8196443603515626,0,0,0
535,-0.6174687022900756,0.05900305343511449,-1.4338152671755724,-0.009481640625000004,0.0035337646484375003,1.8233064697265626,0,0,0
536,1.321462595419848,1.8452625954198474,1.0242000000000002,-0.007040234375000004,-0.0008607666015624997,1.8174470947265626,0,0,0
537,-2.9686137404580144,0.4864839694656488,-0.7773267175572518,-0.010946484375000004,0.0067075927734375,1.8242830322265626,0,0,0
538,-0.9075450381679382,1.2651099236641221,0.6883221374045803,-0.010458203125000004,0.0074400146484375,1.8250154541015626,0,0,0
539,-1.2739572519083964,-2.4600809160305346,-2.120838167938931,-0.006551953125000004,0.0052427490234375,1.8154939697265626,0,0,0
540,-0.144186259541984,-1.131836641221374,4.2455740458015265,-0.006063671875000004,0.0049986083984375,1.8172029541015626,0,0,0
541,-1.3655603053435108,-1.2387068702290076,-0.07503664122137393,-0.008260937500000004,0.0057310302734375,1.8228181884765626,0,0,0
542,-3.1670870229007626,0.42541526717557254,2.1539709923664123,-0.012411328125000004,0.0028013427734375003,1.8289217041015626,0,0,0
543,-1.6251022900763352,6.486483969465649,-0.3193114503816793,-0.006796093750000004,0.0049986083984375,1.8225740478515626,0,0,0
544,-0.08311755725190767,4.608621374045802,0.7493908396946566,-0.008016796875000004,0.0049986083984375,1.8211092041015626,0,0,0
545,-0.3884610687022893,-1.650920610687023,5.405879389312977,-0.007772656250000004,0.0006040771484375003,1.8174470947265626,0,0,0
546,-1.3655603053435108,-1.7730580152671755,2.1539709923664123,-0.008505078125000004,0.0018247802734375003,1.8128084228515626,0,0,0
547,-0.05258320610686951,1.8147282442748092,0.23030687022900773,-0.007772656250000004,0.0028013427734375003,1.8181795166015626,0,0,0
548,-1.594567938931297,-0.3837450381679389,-1.6322885496183204,-0.011678906250000004,0.0028013427734375003,1.8203767822265626,0,0,0
549,-1.7167053435114497,-3.1623709923664123,5.528016793893129,-0.012167187500000004,0.0047544677734375,1.8106111572265626,0,0,0
550,-0.327392366412213,4.059003053435115,2.245574045801527,-0.011190625000000004,0.0047544677734375,1.8201326416015626,0,0,0
551,-2.510598473282442,-3.9104625954198475,-1.8460290076335877,-0.008505078125000004,0.0047544677734375,1.8228181884765626,0,0,0
552,-1.8235755725190832,3.9063312977099236,1.3906122137404582,-0.008260937500000004,0.0032896240234375003,1.8172029541015626,0,0,0
553,-1.228155725190839,0.7154916030534351,3.4974824427480917,-0.006551953125000004,0.0062193115234375,1.8206209228515626,0,0,0
554,-0.5411328244274802,2.2422091603053436,1.0242000000000002,-0.009481640625000004,0.0042661865234375,1.8208650634765626,0,0,0
555,-1.396094656488549,-1.3761114503816794,2.840993893129771,-0.008260937500000004,0.0035337646484375003,1.8220857666015626,0,0,0
556,-0.510598473282442,3.4941175572519083,-3.2658763358778624,-0.008749218750000004,0.0045103271484375,1.8225740478515626,0,0,0
557,-1.6403694656488543,-1.8951954198473282,-2.1819068702290076,-0.007040234375000004,0.0006040771484375003,1.8211092041015626,0,0,0
558,0.4665007633587793,1.2956442748091603,2.6883221374045805,-0.005575390625000004,0.0010923583984375003,1.8262361572265626,0,0,0
559,-0.6022015267175564,2.318545038167939,0.27610839694656497,-0.011434765625000004,0.0052427490234375,1.8176912353515626,0,0,0
560,-3.2586900763358773,-0.8875618320610688,-1.7696931297709921,-0.011923046875000004,0.0030454833984375003,1.8272127197265626,0,0,0
561,-2.6174687022900756,-0.8875618320610688,0.6577877862595422,-0.010946484375000004,0.0057310302734375,1.8189119384765626,0,0,0
562,0.11535572519084042,-1.8188595419847327,-0.13610534351145026,-0.006796093750000004,0.0057310302734375,1.8242830322265626,0,0,0
563,-3.625102290076335,0.6544229007633587,-2.288777099236641,-0.006551953125000004,0.0076841552734375,1.8213533447265626,0,0,0
564,0.17642442748091675,-0.5211496183206107,3.787558778625954,-0.007528515625000004,0.0025572021484375003,1.8154939697265626,0,0,0
565,-1.3197587786259535,0.42541526717557254,0.7799251908396947,-0.006551953125000004,0.0057310302734375,1.8189119384765626,0,0,0
566,-0.9686137404580146,-0.8112259541984733,1.36007786259542,-0.008749218750000004,0.0069517333984375,1.8162263916015626,0,0,0
567,-1.4724305343511443,-0.9944320610687023,0.5051160305343513,-0.010214062500000004,0.0062193115234375,1.8211092041015626,0,0,0
568,0.02375267175572593,-0.8875618320610688,-0.9299984732824426,-0.010458203125000004,0.0018247802734375003,1.8194002197265626,0,0,0
569,-0.29685801526717487,-0.18527175572519086,1.6348870229007635,-0.008260937500000004,0.0040220458984375,1.8181795166015626,0,0,0
570,0.5428366412213748,0.2880106870229008,3.1616045801526718,-0.009725781250000004,0.0089048583984375,1.8201326416015626,0,0,0
571,-3.365560305343511,-0.17000458015267178,-3.403280916030534,-0.010946484375000004,0.0010923583984375003,1.8213533447265626,0,0,0
572,-2.495331297709923,-1.9867984732824426,-0.9299984732824426,-0.007040234375000004,0.0042661865234375,1.8247713134765626,0,0,0
573,-0.7701404580152664,-0.1394702290076336,0.5509175572519085,-0.010702343750000004,-0.0001283447265624997,1.8184236572265626,0,0,0
574,-1.1823541984732817,-3.116569465648855,-0.02923511450381669,-0.010214062500000004,0.0057310302734375,1.8237947509765626,0,0,0
575,-2.9533465648854955,0.3643465648854962,3.2684748091603053,-0.008016796875000004,0.0054868896484375,1.8135408447265626,0,0,0
576,-1.6251022900763352,-3.0096992366412216,0.7035893129770994,-0.010702343750000004,0.0023130615234375003,1.8245271728515626,0,0,0
577,-0.46479694656488474,-0.3684778625954198,0.9173297709923665,-0.007772656250000004,0.0052427490234375,1.8208650634765626,0,0,0
578,-1.6251022900763352,2.1200717557251907,1.909696183206107,-0.012167187500000004,-0.0130677978515625,1.8391756103515626,0,0,0
579,-2.312125190839694,0.31854503816793894,3.1158030534351147,-0.005819531250000004,0.0035337646484375003,1.8172029541015626,0,0,0
580,-0.06785038167938856,2.700224427480916,1.909696183206107,-0.008505078125000004,0.0015806396484375003,1.8186677978515626,0,0,0
581,-1.5182320610687017,0.41014809160305343,1.36007786259542,-0.007284375000000004,0.0035337646484375003,1.8215974853515626,0,0,0
582,-3.1212854961832055,0.16587328244274807,2.810459541984733,-0.005331250000000004,0.0054868896484375,1.8147615478515626,0,0,0
583,1.4741343511450389,1.433048854961832,3.344810687022901,-0.004110546875000004,0.0049986083984375,1.8184236572265626,0,0,0
584,-1.3350259541984726,5.570453435114504,2.9020625954198476,-0.006307812500000004,0.0023130615234375003,1.8213533447265626,0,0,0
585,-1.5182320610687017,0.2880106870229008,-3.2658763358778624,-0.025350781250000003,0.0040220458984375,1.8135408447265626,0,0,0
586,-0.3884610687022893,0.150606106870229,-4.029235114503817,-0.007528515625000004,0.0049986083984375,1.8240388916015626,0,0,0
587,-1.04494961832061,0.05900305343511449,3.4364137404580153,-0.009237500000000004,0.0037779052734375003,1.8242830322265626,0,0,0
588,-1.6709038167938925,-0.10893587786259543,3.482215267175573,-0.006307812500000004,0.0040220458984375,1.8228181884765626,0,0,0
589,-0.12891908396946494,1.8452625954198474,2.0623679389312977,0.001504687499999996,0.0067075927734375,1.8233064697265626,0,0,0
590,-0.3426595419847321,-1.5745847328244273,3.2990091603053435,-0.010214062500000004,0.0003599365234375003,1.8167146728515626,0,0,0
591,-1.9151786259541979,-1.131836641221374,3.52801679389313,-0.008749218750000004,0.0057310302734375,1.8181795166015626,0,0,0
592,2.1458900763358786,-0.3837450381679389,0.1845053435114505,-0.006796093750000004,0.0045103271484375,1.8211092041015626,0,0,0
593,-0.44952977099236563,1.5246519083969465,3.0852687022900764,-0.012899609375000004,-0.0003724853515624997,1.8118318603515626,0,0,0
594,-1.4724305343511443,1.3261786259541986,0.04710076335877875,-0.008505078125000004,0.0015806396484375003,1.8215974853515626,0,0,0
595,-1.21288854961832,3.6925908396946565,1.741757251908397,-0.005819531250000004,0.0062193115234375,1.8235506103515626,0,0,0
596,-3.2892244274809155,0.30327786259541983,0.04710076335877875,-0.008505078125000004,0.0023130615234375003,1.8235506103515626,0,0,0
597,-3.396094656488549,-1.131836641221374,-1.3116778625954197,-0.009481640625000004,0.0059751708984375,1.8255037353515626,0,0,0
598,-0.7396061068702282,0.47121679389312976,2.3219099236641223,-0.006551953125000004,0.0091489990234375,1.8164705322265626,0,0,0
599,-1.1212854961832055,-7.727256488549618,0.8715282442748093,-0.007284375000000004,0.0010923583984375003,1.8220857666015626,0,0,0
600,-0.510598473282442,-1.879928244274809,1.9707648854961834,-0.008260937500000004,0.0042661865234375,1.8159822509765626,0,0,0
601,-0.7854076335877855,-1.8188595419847327,0.9325969465648856,-0.010214062500000004,0.0020689208984375003,1.8215974853515626,0,0,0
602,-0.26632366412213665,1.5704534351145039,3.2532076335877864,-0.009481640625000004,0.0018247802734375003,1.8203767822265626,0,0,0
603,-0.5869343511450373,1.3109114503816794,0.6119862595419848,-0.006796093750000004,-0.0011049072265624997,1.8189119384765626,0,0,0
604,-1.7014381679389305,0.8070946564885496,0.642520610687023,-0.009725781250000004,0.0059751708984375,1.8413728759765626,0,0,0
605,-1.3655603053435108,-1.2387068702290076,1.2532076335877864,-0.008505078125000004,0.0049986083984375,1.8215974853515626,0,0,0
606,-2.6022015267175567,1.6467893129770994,0.15397099236641235,-0.007284375000000004,0.0010923583984375003,1.8128084228515626,0,0,0
607,-2.495331297709923,2.0742702290076336,-3.0521358778625953,-0.007772656250000004,0.0045103271484375,1.8211092041015626,0,0,0
608,-0.0373160305343504,-1.6356534351145038,1.4364137404580155,-0.008505078125000004,0.0052427490234375,1.8201326416015626,0,0,0
609,-0.7854076335877855,-1.9562641221374044,3.344810687022901,-0.009725781250000004,0.0020689208984375003,1.8208650634765626,0,0,0
610,-1.5182320610687017,1.5551862595419848,1.3448106870229009,-0.009725781250000004,0.0052427490234375,1.8196443603515626,0,0,0
611,-1.8541099236641214,-2.2463404580152675,1.4364137404580155,-0.008993359375000004,0.0013364990234375003,1.7964510009765626,0,0,0
612,1.1840580152671762,4.9750335877862595,-1.708624427480916,-0.006796093750000004,-0.0164857666015625,1.8154939697265626,0,0,0
613,-2.7548732824427473,-3.04023358778626,2.795192366412214,-0.012411328125000004,0.0042661865234375,1.8362459228515626,0,0,0
614,-0.44952977099236563,-1.8188595419847327,1.573818320610687,-0.004354687500000004,0.0059751708984375,1.8108552978515626,0,0,0
615,0.02375267175572593,1.6620564885496183,3.176871755725191,-0.004842968750000004,0.0079282958984375,1.8196443603515626,0,0,0
616,-0.11365190839694583,2.7612931297709924,2.596719083969466,-0.016805859375000003,0.0084165771484375,1.8228181884765626,0,0,0
617,2.0695541984732833,1.1277053435114504,-1.174273282442748,-0.014364453125000004,0.0037779052734375003,1.8184236572265626,0,0,0
618,0.2374931297709931,3.2345755725190837,2.092902290076336,-0.015341015625000004,0.0028013427734375003,1.8211092041015626,0,0,0
619,0.3290961832061076,1.0666366412213741,0.8409938931297711,-0.002645703125000004,0.0028013427734375003,1.8179353759765626,0,0,0
620,-1.1518198473282435,2.929232061068702,-0.02923511450381669,-0.005575390625000004,0.0081724365234375,1.8189119384765626,0,0,0
621,-0.29685801526717487,0.150606106870229,-0.7009908396946564,-0.007284375000000004,0.0059751708984375,1.8176912353515626,0,0,0
622,-0.7396061068702282,-3.818859541984733,0.3219099236641223,-0.018270703125000003,0.0111021240234375,1.8201326416015626,0,0,0
623,0.28329465648855034,1.8757969465648856,2.2303068702290076,-0.015585156250000004,-0.0008607666015624997,1.8186677978515626,0,0,0
624,-1.4418961832061061,3.29564427480916,-1.891830534351145,-0.011678906250000004,0.0037779052734375003,1.8179353759765626,0,0,0
625,-0.5411328244274802,1.2345755725190841,4.001299236641221,-0.003133984375000004,0.0030454833984375003,1.8194002197265626,0,0,0
626,-1.38082748091603,-1.7425236641221373,2.1539709923664123,-0.008505078125000004,0.0054868896484375,1.8230623291015626,0,0,0
627,-0.8617435114503811,2.9903007633587784,-1.5712198473282442,-0.008749218750000004,0.0037779052734375003,1.8198885009765626,0,0,0
628,-1.5029648854961826,-3.269241221374046,0.3829786259541986,-0.011678906250000004,0.0098814208984375,1.8172029541015626,0,0,0
629,-0.06785038167938856,-1.0402335877862594,-0.9452656488549617,-0.016073437500000003,0.0010923583984375003,1.8211092041015626,0,0,0
630,0.03901984732824501,1.1735068702290077,0.09290229007633596,-0.008749218750000004,0.0010923583984375003,1.8179353759765626,0,0,0
631,-0.9075450381679382,-1.0096992366412214,4.4745816793893125,-0.009725781250000004,0.0037779052734375003,1.8201326416015626,0,0,0
632,-0.8159419847328238,-1.9104625954198473,-1.357479389312977,-0.003133984375000004,0.0045103271484375,1.8181795166015626,0,0,0
633,-2.6174687022900756,0.333812213740458,0.5051160305343513,-0.013632031250000004,0.0049986083984375,1.8225740478515626,0,0,0
634,-0.48006412213740385,0.8070946564885496,-1.388013740458015,-0.008749218750000004,0.0025572021484375003,1.8145174072265626,0,0,0
635,-3.182354198473282,3.5704534351145036,0.23030687022900773,-0.008260937500000004,0.0018247802734375003,1.8396638916015626,0,0,0
636,0.11535572519084042,-0.8112259541984733,-1.388013740458015,-0.006063671875000004,-0.0001283447265624997,1.8181795166015626,0,0,0
637,-0.8159419847328238,1.9063312977099238,0.45931450381679406,-0.006063671875000004,0.0035337646484375003,1.8179353759765626,0,0,0
638,-1.21288854961832,-3.7425236641221375,1.7112229007633588,-0.011434765625000004,0.0074400146484375,1.8179353759765626,0,0,0
639,-2.0678503816793885,-2.70435572519084,0.04710076335877875,-0.009481640625000004,0.0091489990234375,1.8189119384765626,0,0,0
640,0.7260427480916039,1.3414458015267177,-0.13610534351145026,-0.008505078125000004,0.0059751708984375,1.8272127197265626,0,0,0
641,-2.083117557251908,1.6467893129770994,2.0471007633587788,-0.006796093750000004,0.0089048583984375,1.8245271728515626,0,0,0
642,-1.228155725190839,2.104804580152672,-0.8536625954198472,-0.009969921875000004,0.0037779052734375003,1.8189119384765626,0,0,0
643,-1.2739572519083964,0.4559496183206107,5.375345038167938,-0.008016796875000004,0.0052427490234375,1.8169588134765626,0,0,0
644,-0.9533465648854955,-1.0860351145038167,0.9173297709923665,-0.008505078125000004,0.0049986083984375,1.8215974853515626,0,0,0
645,-0.7090717557251902,-0.5364167938931298,1.0852687022900764,-0.008993359375000004,0.0035337646484375003,1.8159822509765626,0,0,0
646,0.2680274809160313,-3.7730580152671758,0.3219099236641223,-0.009481640625000004,0.0030454833984375003,1.8181795166015626,0,0,0
647,-1.1823541984732817,3.0055679389312977,1.6806885496183208,0.001016406249999996,0.0015806396484375003,1.8169588134765626,0,0,0
648,-0.022048854961831343,0.4406824427480916,0.9325969465648856,-0.005575390625000004,0.0142759521484375,1.8228181884765626,0,0,0
649,-0.9686137404580146,0.4864839694656488,-1.4338152671755724,-0.007284375000000004,0.0037779052734375003,1.8106111572265626,0,0,0
650,0.19169160305343586,-3.589851908396947,2.7341236641221376,-0.008505078125000004,0.00011579589843750031,1.8103670166015626,0,0,0
651,-1.6098351145038161,2.5017511450381678,-1.3269450381679389,-0.008016796875000004,0.0093931396484375,1.8213533447265626,0,0,0
652,-1.4418961832061061,-0.9638977099236642,3.36007786259542,-0.010702343750000004,0.0025572021484375003,1.8194002197265626,0,0,0
653,-1.6709038167938925,3.2345755725190837,1.9554977099236641,-0.008749218750000004,0.0054868896484375,1.8174470947265626,0,0,0
654,-0.0373160305343504,2.746025954198473,-1.9528992366412212,-0.010214062500000004,0.0037779052734375003,1.8233064697265626,0,0,0
655,-1.1670870229007626,-0.5058824427480916,-1.5254183206106868,-0.006063671875000004,0.0057310302734375,1.8191560791015626,0,0,0
656,-2.174720610687022,1.5704534351145039,0.10816946564885507,-0.010946484375000004,0.0071958740234375,1.8186677978515626,0,0,0
657,0.2374931297709931,3.3109114503816794,-0.3651129770992365,-0.010214062500000004,0.0018247802734375003,1.8255037353515626,0,0,0
658,-2.1899877862595414,-0.8875618320610688,-0.9605328244274808,-0.015341015625000004,0.0025572021484375003,1.8377107666015626,0,0,0
659,-0.9075450381679382,0.9903007633587785,1.8791618320610688,-0.005087109375000004,0.0052427490234375,1.8259920166015626,0,0,0
660,-0.846476335877862,-1.2539740458015267,2.5509175572519087,-0.013876171875000004,0.0057310302734375,1.8213533447265626,0,0,0
661,-1.4724305343511443,-3.635653435114504,0.993665648854962,-0.008505078125000004,0.0049986083984375,1.8198885009765626,0,0,0
662,-0.8922778625954191,-0.6280198473282443,-1.021601526717557,-0.006796093750000004,0.0030454833984375003,1.8203767822265626,0,0,0
663,-0.327392366412213,2.898697709923664,-2.1666396946564883,-0.012167187500000004,0.0084165771484375,1.8194002197265626,0,0,0
664,-0.8617435114503811,0.8376290076335877,0.5967190839694658,-0.006307812500000004,0.0032896240234375003,1.8176912353515626,0,0,0
665,-0.48006412213740385,0.4864839694656488,0.27610839694656497,-0.009481640625000004,0.0057310302734375,1.8159822509765626,0,0,0
666,-1.2434229007633582,-1.0860351145038167,0.47458167938931306,-0.012167187500000004,0.0030454833984375003,1.8203767822265626,0,0,0
667,-1.060216793893129,-0.33794351145038165,-0.24297557251908386,-0.012411328125000004,0.0042661865234375,1.8181795166015626,0,0,0
668,-1.5334992366412208,1.036102290076336,2.3829786259541987,-0.009237500000000004,0.0035337646484375003,1.8208650634765626,0,0,0
669,-3.4266290076335872,-0.8570274809160305,2.1997725190839694,-0.005331250000000004,0.0037779052734375003,1.8218416259765626,0,0,0
670,-1.426629007633587,-0.26160763358778627,3.0394671755725193,-0.008993359375000004,0.0035337646484375003,1.8191560791015626,0,0,0
671,-1.1060183206106864,0.9292320610687023,-0.8689297709923662,-0.010702343750000004,0.0030454833984375003,1.8208650634765626,0,0,0
672,-3.228155725190839,0.6391557251908396,1.3448106870229009,-0.012167187500000004,0.0052427490234375,1.8169588134765626,0,0,0
673,0.6497068702290083,-1.4219129770992365,0.3829786259541986,-0.011434765625000004,0.0069517333984375,1.8181795166015626,0,0,0
674,2.161157251908398,-2.2158061068702293,4.1387038167938925,-0.006063671875000004,0.0032896240234375003,1.8196443603515626,0,0,0
675,-3.243422900763358,-1.9562641221374044,-1.9987007633587786,-0.010458203125000004,0.0025572021484375003,1.8203767822265626,0,0,0
676,-1.2739572519083964,2.013201526717557,-0.7009908396946564,-0.009481640625000004,0.0079282958984375,1.8167146728515626,0,0,0
677,-1.0144152671755717,3.051369465648855,-0.22770839694656478,-0.010702343750000004,0.0049986083984375,1.8194002197265626,0,0,0
678,-1.1365526717557246,-0.6280198473282443,0.001299236641221474,-0.010458203125000004,0.0042661865234375,1.8228181884765626,0,0,0
679,-0.25105648854961754,-1.4371801526717556,3.0394671755725193,-0.006796093750000004,0.0064634521484375,1.8223299072265626,0,0,0
680,-0.0373160305343504,0.41014809160305343,2.978398473282443,-0.005819531250000004,0.0006040771484375003,1.8237947509765626,0,0,0
681,-0.29685801526717487,6.929232061068703,2.092902290076336,-0.008505078125000004,0.0020689208984375003,1.8215974853515626,0,0,0
682,-1.396094656488549,-0.0478671755725191,2.245574045801527,-0.008260937500000004,0.0037779052734375003,1.8201326416015626,0,0,0
683,-1.4571633587786252,-1.6356534351145038,4.749390839694656,-0.007528515625000004,0.0054868896484375,1.8213533447265626,0,0,0
684,0.2374931297709931,1.1735068702290077,-1.5254183206106868,-0.008260937500000004,0.0067075927734375,1.8125642822265626,0,0,0
685,0.10008854961832134,-5.116569465648855,3.405879389312977,-0.008993359375000004,0.0064634521484375,1.8201326416015626,0,0,0
686,-0.5869343511450373,-4.5974854961832055,4.199772519083969,-0.013143750000000004,0.0032896240234375003,1.8164705322265626,0,0,0
687,-1.4113618320610681,-2.0784015267175575,0.6577877862595422,-0.013387890625000004,0.0006040771484375003,1.8230623291015626,0,0,0
688,-0.7854076335877855,0.9903007633587785,-1.0674030534351144,-0.012167187500000004,0.0042661865234375,1.8218416259765626,0,0,0
689,-1.6403694656488543,-0.5211496183206107,-1.388013740458015,-0.008993359375000004,0.0052427490234375,1.8225740478515626,0,0,0
690,-0.6174687022900756,-0.4142793893129771,4.428780152671756,-0.010946484375000004,0.0040220458984375,1.8157381103515626,0,0,0
691,-1.6251022900763352,1.8757969465648856,0.3829786259541986,-0.004842968750000004,0.0071958740234375,1.8215974853515626,0,0,0
692,-1.6709038167938925,-1.5287832061068702,1.741757251908397,-0.010214062500000004,0.0040220458984375,1.8123201416015626,0,0,0
693,-0.312125190839694,0.2269419847328244,2.413512977099237,-0.005575390625000004,0.0028013427734375003,1.8362459228515626,0,0,0
694,-3.396094656488549,0.8070946564885496,0.7493908396946566,-0.011190625000000004,0.0067075927734375,1.8203767822265626,0,0,0
695,-0.08311755725190767,0.9903007633587785,1.3906122137404582,-0.011190625000000004,0.0062193115234375,1.8223299072265626,0,0,0
696,0.02375267175572593,2.5017511450381678,2.993665648854962,-0.012899609375000004,-0.0003724853515624997,1.8220857666015626,0,0,0
697,-2.4342625954198467,-5.727256488549618,-1.8154946564885495,-0.008505078125000004,0.0035337646484375003,1.8174470947265626,0,0,0
698,-3.014415267175572,-1.4219129770992365,-0.12083816793893119,-0.005575390625000004,0.0064634521484375,1.8223299072265626,0,0,0
699,-1.594567938931297,-0.5516839694656489,4.062367938931297,-0.008016796875000004,0.0057310302734375,1.8208650634765626,0,0,0
700,-2.7396061068702284,0.517018320610687,-1.006334351145038,-0.008260937500000004,0.00011579589843750031,1.8218416259765626,0,0,0
701,0.008485496183206848,-0.7196229007633588,-1.006334351145038,-0.011434765625000004,0.0071958740234375,1.8189119384765626,0,0,0
702,-0.49533129770992296,-0.5211496183206107,2.092902290076336,-0.003866406250000004,0.0059751708984375,1.8206209228515626,0,0,0
703,-1.4876977099236635,-2.2616076335877864,2.505116030534351,-0.007040234375000004,0.0067075927734375,1.8206209228515626,0,0,0
704,-0.846476335877862,1.4788503816793894,-0.7467923664122136,-0.007284375000000004,-0.0001283447265624997,1.8150056884765626,0,0,0
705,1.9779511450381686,-0.2310732824427481,-2.1055709923664123,-0.008260937500000004,0.0069517333984375,1.8237947509765626,0,0,0
706,-0.28159083969465576,-0.933363358778626,1.909696183206107,-0.010702343750000004,0.0057310302734375,1.8220857666015626,0,0,0
707,-0.327392366412213,3.860529770992366,2.840993893129771,-0.008260937500000004,0.0052427490234375,1.8181795166015626,0,0,0
708,-0.22052213740457943,0.1353389312977099,0.3371770992366414,-0.003866406250000004,0.0042661865234375,1.8196443603515626,0,0,0
709,-0.49533129770992296,1.9063312977099238,-1.8154946564885495,-0.010946484375000004,0.0045103271484375,1.8208650634765626,0,0,0
710,-0.678537404580152,0.8834305343511449,0.7951923664122138,-0.014120312500000004,0.0040220458984375,1.8184236572265626,0,0,0
711,-0.7548732824427473,1.051369465648855,-1.2506091603053433,-0.006307812500000004,0.0047544677734375,1.8237947509765626,0,0,0
712,-1.060216793893129,2.5170183206106866,-1.4796167938931297,-0.009969921875000004,0.0037779052734375003,1.8174470947265626,0,0,0
713,0.05428702290076409,1.6773236641221374,-1.907097709923664,-0.008749218750000004,0.0045103271484375,1.8198885009765626,0,0,0
714,1.7642106870229015,1.768926717557252,-3.067403053435114,-0.007040234375000004,0.0062193115234375,1.8215974853515626,0,0,0
715,-1.6403694656488543,1.4483160305343512,3.52801679389313,-0.009237500000000004,0.0030454833984375003,1.8181795166015626,0,0,0
716,-1.04494961832061,0.333812213740458,-0.7009908396946564,-0.009237500000000004,0.0040220458984375,1.8174470947265626,0,0,0
717,2.0695541984732833,1.3719801526717559,-2.1666396946564883,-0.008016796875000004,0.0074400146484375,1.8169588134765626,0,0,0
718,-1.1060183206106864,1.8299954198473283,1.3448106870229009,-0.006796093750000004,0.0015806396484375003,1.8208650634765626,0,0,0
719,-1.1823541984732817,-0.1547374045801527,3.543283969465649,-0.007772656250000004,0.0057310302734375,1.8245271728515626,0,0,0
720,-1.6861709923664114,-0.3074091603053435,2.0012992366412217,-0.006796093750000004,0.0084165771484375,1.8257478759765626,0,0,0
721,-0.49533129770992296,3.6162549618320607,1.1158030534351147,-0.011434765625000004,0.0028013427734375003,1.8186677978515626,0,0,0
722,-3.2892244274809155,1.3719801526717559,2.1997725190839694,-0.025350781250000003,0.0025572021484375003,1.8176912353515626,0,0,0
723,-3.029682442748091,1.1887740458015268,1.207406106870229,-0.007040234375000004,0.0018247802734375003,1.8189119384765626,0,0,0
724,-0.8312091603053429,0.5628198473282442,1.4058793893129773,-0.008993359375000004,0.0064634521484375,1.8194002197265626,0,0,0
725,1.9321496183206113,-1.0707679389312976,1.2226732824427482,-0.008016796875000004,0.0049986083984375,1.8206209228515626,0,0,0
726,-0.20525496183206032,1.6467893129770994,0.12343664122137413,-0.006307812500000004,0.0040220458984375,1.8211092041015626,0,0,0
727,-2.296858015267175,2.7765603053435113,3.818093129770993,-0.007772656250000004,0.0064634521484375,1.8167146728515626,0,0,0
728,-0.022048854961831343,-2.3379435114503817,0.10816946564885507,-0.007528515625000004,-0.0001283447265624997,1.8233064697265626,0,0,0
729,-1.1823541984732817,-1.7730580152671755,-0.7315251908396945,-0.009237500000000004,0.00011579589843750031,1.8169588134765626,0,0,0
730,-1.5182320610687017,4.089537404580153,2.932596946564886,-0.008749218750000004,0.0093931396484375,1.8172029541015626,0,0,0
731,-0.8312091603053429,1.8605297709923665,2.1692381679389316,-0.007040234375000004,-0.0001283447265624997,1.8235506103515626,0,0,0
732,-0.5411328244274802,-1.2692412213740458,1.039467175572519,-0.008993359375000004,0.0028013427734375003,1.8274568603515626,0,0,0
733,-0.7548732824427473,0.7154916030534351,-0.6551893129770991,-0.007284375000000004,0.0032896240234375003,1.8181795166015626,0,0,0
734,-0.022048854961831343,-1.8035923664122138,1.161604580152672,-0.008505078125000004,0.0040220458984375,1.8225740478515626,0,0,0
735,-1.228155725190839,1.79946106870229,2.3829786259541987,-0.011923046875000004,0.0037779052734375003,1.8245271728515626,0,0,0
736,-0.9991480916030528,2.715491603053435,-0.6857236641221373,-0.006796093750000004,0.0023130615234375003,1.8391756103515626,0,0,0
737,-0.18998778625954127,2.486483969465649,-1.5712198473282442,-0.010946484375000004,0.0079282958984375,1.8220857666015626,0,0,0
738,-2.724338931297709,0.9750335877862595,3.0394671755725193,-0.006551953125000004,0.0059751708984375,1.8211092041015626,0,0,0
739,-0.8006748091603046,1.2803770992366412,-2.9605328244274807,-0.010702343750000004,0.0003599365234375003,1.8206209228515626,0,0,0
740,-1.5334992366412208,0.24220916030534348,-2.0139679389312977,-0.010946484375000004,0.0028013427734375003,1.8228181884765626,0,0,0
741,-0.44952977099236563,-1.7272564885496182,3.5890854961832064,-0.007772656250000004,0.0040220458984375,1.8194002197265626,0,0,0
742,-1.0296824427480908,0.898697709923664,1.5585511450381682,-0.011190625000000004,0.0015806396484375003,1.8208650634765626,0,0,0
743,-1.21288854961832,-2.5058824427480917,1.573818320610687,-0.006796093750000004,0.0023130615234375003,1.8218416259765626,0,0,0
744,-0.49533129770992296,-1.9257297709923664,5.772291603053435,-0.010458203125000004,0.0067075927734375,1.8240388916015626,0,0,0
745,-0.06785038167938856,-0.46008091603053436,2.337177099236641,-0.011190625000000004,0.0025572021484375003,1.8103670166015626,0,0,0
746,-1.396094656488549,4.562819847328244,0.3829786259541986,-0.007284375000000004,0.0054868896484375,1.8167146728515626,0,0,0
747,0.1611572519083977,-1.3455770992366411,1.3448106870229009,-0.010458203125000004,0.0079282958984375,1.8277010009765626,0,0,0
748,-1.8541099236641214,1.8605297709923665,3.0700015267175575,-0.011923046875000004,0.0086607177734375,1.8294099853515626,0,0,0
749,-2.6022015267175567,0.3948809160305344,0.3829786259541986,-0.007528515625000004,0.0049986083984375,1.8152498291015626,0,0,0
750,-3.533499236641221,0.4864839694656488,3.4364137404580153,-0.007284375000000004,0.0052427490234375,1.8184236572265626,0,0,0
751,-0.6480030534351138,1.5704534351145039,1.0700015267175573,-0.010458203125000004,0.0047544677734375,1.8189119384765626,0,0,0
752,-0.3884610687022893,-2.154737404580153,1.6348870229007635,-0.008016796875000004,0.0057310302734375,1.8215974853515626,0,0,0
753,-1.8999114503816785,-2.2158061068702293,-3.494883969465649,-0.007772656250000004,0.0054868896484375,1.8174470947265626,0,0,0
754,-1.5182320610687017,2.0437358778625954,1.4822152671755726,-0.010702343750000004,0.0071958740234375,1.8191560791015626,0,0,0
755,-0.9533465648854955,-2.3379435114503817,-0.273509923664122,-0.004842968750000004,0.0071958740234375,1.8401521728515626,0,0,0
756,-0.7090717557251902,3.051369465648855,5.299009160305343,-0.009969921875000004,0.0047544677734375,1.8206209228515626,0,0,0
757,-0.5563999999999993,-1.5745847328244273,-0.12083816793893119,-0.008260937500000004,0.0030454833984375003,1.8167146728515626,0,0,0
758,-1.1670870229007626,3.5399190839694654,-1.540685496183206,-0.008016796875000004,0.0006040771484375003,1.8128084228515626,0,0,0
759,-0.44952977099236563,1.6315221374045803,1.6806885496183208,-0.006796093750000004,0.0084165771484375,1.8113435791015626,0,0,0
760,-0.5869343511450373,1.5399190839694656,1.1768717557251909,-0.008016796875000004,0.0008482177734375003,1.8223299072265626,0,0,0
761,-0.4037282442748084,-1.330309923664122,-1.1132045801526718,-0.009725781250000004,0.0057310302734375,1.8213533447265626,0,0,0
762,0.8023786259541992,0.6086213740458015,2.978398473282443,-0.008505078125000004,0.0030454833984375003,1.8225740478515626,0,0,0
763,-1.5182320610687017,3.081903816793893,8.18450534351145,-0.007284375000000004,0.0059751708984375,1.8181795166015626,0,0,0
764,-0.6632702290076329,0.043735877862595404,2.6883221374045805,-0.007040234375000004,0.0049986083984375,1.8220857666015626,0,0,0
765,-0.846476335877862,-0.8875618320610688,-2.823128244274809,-0.009481640625000004,0.0040220458984375,1.8252595947265626,0,0,0
766,-0.29685801526717487,2.562819847328244,3.4516809160305346,-0.011678906250000004,0.0086607177734375,1.8396638916015626,0,0,0
767,-0.08311755725190767,-1.1013022900763358,1.741757251908397,-0.008749218750000004,0.0025572021484375003,1.8157381103515626,0,0,0
768,-2.861743511450381,-1.4524473282442747,0.09290229007633596,-0.008993359375000004,0.0049986083984375,1.8230623291015626,0,0,0
769,-1.6709038167938925,-0.6280198473282443,-0.7315251908396945,-0.012655468750000004,0.0045103271484375,1.8255037353515626,0,0,0
770,0.9092488549618327,3.036102290076336,1.7112229007633588,-0.007284375000000004,0.0074400146484375,1.8245271728515626,0,0,0
771,-0.7396061068702282,4.074270229007634,-1.6322885496183204,-0.008749218750000004,0.0067075927734375,1.8174470947265626,0,0,0
772,-0.6632702290076329,-0.8570274809160305,-0.16663969465648845,-0.004354687500000004,0.0025572021484375003,1.8233064697265626,0,0,0
773,0.1611572519083977,-1.131836641221374,0.47458167938931306,-0.007528515625000004,-0.0040345947265625,1.8176912353515626,0,0,0
774,-0.43426259541984663,3.600987786259542,0.5051160305343513,-0.008993359375000004,0.0064634521484375,1.8191560791015626,0,0,0
775,-1.3655603053435108,2.8223618320610684,2.6577877862595423,-0.012167187500000004,0.0015806396484375003,1.8181795166015626,0,0,0
776,-1.2586900763358773,1.768926717557252,2.7493908396946565,-0.010458203125000004,0.0040220458984375,1.8211092041015626,0,0,0
777,-3.533499236641221,-2.750157251908397,0.1845053435114505,-0.004598828125000004,0.0047544677734375,1.8245271728515626,0,0,0
778,-0.9380793893129764,1.5246519083969465,-0.13610534351145026,-0.007772656250000004,0.0064634521484375,1.8252595947265626,0,0,0
779,-3.060216793893129,-1.69672213740458,-3.9987007633587783,-0.007528515625000004,0.0010923583984375003,1.8247713134765626,0,0,0
780,-1.4571633587786252,0.8070946564885496,-1.8154946564885495,-0.008260937500000004,0.0047544677734375,1.8198885009765626,0,0,0
781,0.11535572519084042,3.5246519083969465,2.505116030534351,-0.011678906250000004,0.0023130615234375003,1.8203767822265626,0,0,0
782,-3.3197587786259537,-1.0555007633587785,1.8791618320610688,-0.009969921875000004,0.0028013427734375003,1.8245271728515626,0,0,0
783,-0.6938045801526711,-1.4219129770992365,4.749390839694656,-0.010458203125000004,0.0057310302734375,1.8228181884765626,0,0,0
784,-3.273957251908396,-1.9409969465648855,3.36007786259542,-0.011678906250000004,0.0040220458984375,1.8396638916015626,0,0,0
785,-1.4724305343511443,-1.650920610687023,0.10816946564885507,-0.007772656250000004,0.0079282958984375,1.8189119384765626,0,0,0
786,-0.43426259541984663,0.8223618320610686,4.230306870229008,-0.009725781250000004,0.0025572021484375003,1.8218416259765626,0,0,0
787,-0.06785038167938856,0.9444992366412214,-1.357479389312977,-0.009969921875000004,0.0047544677734375,1.8169588134765626,0,0,0
788,-0.3579267175572512,0.8681633587786259,1.0852687022900764,-0.009969921875000004,0.0030454833984375003,1.8181795166015626,0,0,0
789,-0.18998778625954127,3.982667175572519,2.2303068702290076,-0.006063671875000004,0.0037779052734375003,1.8206209228515626,0,0,0
790,-3.0754839694656484,1.433048854961832,3.6196198473282446,-0.010702343750000004,0.0057310302734375,1.8203767822265626,0,0,0
791,-0.17472061068702216,-0.03260000000000001,-0.02923511450381669,-0.007284375000000004,0.0047544677734375,1.8215974853515626,0,0,0
792,-0.7548732824427473,2.165873282442748,1.0700015267175573,-0.006063671875000004,0.0062193115234375,1.8186677978515626,0,0,0
793,-0.43426259541984663,4.990300763358779,3.0242,-0.005819531250000004,0.0040220458984375,1.8174470947265626,0,0,0
794,-1.04494961832061,-1.0707679389312976,1.2379404580152673,-0.008260937500000004,0.0049986083984375,1.8203767822265626,0,0,0
795,-0.3731938931297703,-2.017332824427481,1.4516809160305344,-0.008993359375000004,0.0030454833984375003,1.8225740478515626,0,0,0
796,-0.20525496183206032,-3.3303099236641223,-0.9757999999999999,-0.012411328125000004,0.0059751708984375,1.8230623291015626,0,0,0
797,-2.4342625954198467,2.3338122137404578,-3.8612961832061066,-0.011923046875000004,0.0040220458984375,1.8208650634765626,0,0,0
798,-0.06785038167938856,0.4864839694656488,-1.4185480916030533,-0.010702343750000004,0.0013364990234375003,1.8167146728515626,0,0,0
799,0.13062290076335953,-0.3226763358778626,-2.090303816793893,-0.010214062500000004,0.0037779052734375003,1.8115877197265626,0,0,0
800,-0.846476335877862,-3.7730580152671758,2.3219099236641223,-0.003866406250000004,0.0079282958984375,1.8408845947265626,0,0,0
801,-0.5869343511450373,2.532285496183206,2.3829786259541987,-0.008749218750000004,0.0032896240234375003,1.8191560791015626,0,0,0
802,1.504668702290077,0.6391557251908396,-2.0139679389312977,-0.007040234375000004,0.0028013427734375003,1.8394197509765626,0,0,0
803,-0.4037282442748084,1.4483160305343512,0.3829786259541986,-0.008993359375000004,0.0067075927734375,1.8174470947265626,0,0,0
804,1.519935877862596,2.700224427480916,3.1158030534351147,-0.006063671875000004,0.0020689208984375003,1.8159822509765626,0,0,0
805,-0.3731938931297703,-2.9944320610687023,2.2303068702290076,-0.008993359375000004,0.0067075927734375,1.8179353759765626,0,0,0
806,1.9168824427480924,0.6696900763358778,-1.2048076335877862,-0.010458203125000004,0.0054868896484375,1.8267244384765626,0,0,0
807,-0.17472061068702216,-0.6280198473282443,-0.9452656488549617,-0.006796093750000004,0.0006040771484375003,1.8167146728515626,0,0,0
808,-0.5258656488549611,0.9903007633587785,-0.15137251908396937,-0.009725781250000004,0.0015806396484375003,1.8230623291015626,0,0,0
809,-0.6632702290076329,-3.101302290076336,-0.5635862595419846,-0.008993359375000004,0.0028013427734375003,1.8186677978515626,0,0,0
810,0.6344396946564893,0.41014809160305343,0.7799251908396947,-0.011678906250000004,0.0040220458984375,1.8267244384765626,0,0,0
811,-2.251056488549618,0.8223618320610686,4.85626106870229,-0.010946484375000004,0.0023130615234375003,1.8154939697265626,0,0,0
812,-0.144186259541984,0.4559496183206107,3.390612213740458,-0.008260937500000004,0.0081724365234375,1.8218416259765626,0,0,0
813,0.11535572519084042,1.4025145038167939,3.2684748091603053,-0.007528515625000004,0.0067075927734375,1.8181795166015626,0,0,0
814,0.06955419847328317,-1.3608442748091603,1.4364137404580155,-0.008749218750000004,0.0037779052734375003,1.8196443603515626,0,0,0
815,-0.2357893129770985,-0.5822183206106871,-1.5712198473282442,-0.009969921875000004,0.0032896240234375003,1.8181795166015626,0,0,0
816,-0.6022015267175564,-2.490615267175573,1.6501541984732826,-0.009481640625000004,0.0025572021484375003,1.8262361572265626,0,0,0
817,-1.5334992366412208,1.4788503816793894,-0.7009908396946564,-0.008749218750000004,0.0042661865234375,1.8215974853515626,0,0,0
818,-2.251056488549618,-0.5516839694656489,4.276108396946564,-0.007040234375000004,0.0054868896484375,1.8225740478515626,0,0,0
819,-1.0754839694656482,2.486483969465649,0.8715282442748093,-0.008260937500000004,0.0045103271484375,1.8198885009765626,0,0,0
820,-3.411361832061068,0.3948809160305344,1.0242000000000002,-0.008749218750000004,0.0045103271484375,1.8196443603515626,0,0,0
821,-2.9991480916030526,2.410148091603053,3.344810687022901,-0.009237500000000004,0.0037779052734375003,1.8198885009765626,0,0,0
822,-1.38082748091603,2.79182748091603,0.8562610687022902,-0.013143750000000004,0.0030454833984375003,1.8215974853515626,0,0,0
823,-0.022048854961831343,2.3338122137404578,2.092902290076336,-0.010702343750000004,0.0049986083984375,1.8157381103515626,0,0,0
824,-1.4113618320610681,1.5093847328244276,0.8104595419847329,-0.003622265625000004,0.0052427490234375,1.8181795166015626,0,0,0
825,-1.3350259541984726,1.6467893129770994,-3.326945038167939,-0.007284375000000004,0.0054868896484375,1.8201326416015626,0,0,0
826,-1.3350259541984726,-1.7272564885496182,4.321909923664122,-0.008016796875000004,0.0052427490234375,1.8240388916015626,0,0,0
827,0.45123358778626027,-3.6203862595419847,2.077635114503817,-0.009237500000000004,0.0037779052734375003,1.8230623291015626,0,0,0
828,-2.342659541984732,0.700224427480916,3.4516809160305346,-0.011923046875000004,0.0049986083984375,1.8235506103515626,0,0,0
829,0.008485496183206848,-0.7043557251908398,2.85626106870229,-0.008260937500000004,0.0037779052734375003,1.8223299072265626,0,0,0
830,-1.3197587786259535,2.181140458015267,1.1310702290076338,-0.007528515625000004,0.0047544677734375,1.8225740478515626,0,0,0
831,0.11535572519084042,4.211674809160305,-1.907097709923664,-0.009969921875000004,0.0064634521484375,1.8233064697265626,0,0,0
832,0.4665007633587793,1.1429725190839695,-0.7773267175572518,-0.007040234375000004,0.0067075927734375,1.8218416259765626,0,0,0
833,-0.43426259541984663,-1.2539740458015267,1.573818320610687,-0.008749218750000004,0.0057310302734375,1.8369783447265626,0,0,0
834,-2.174720610687022,3.814728244274809,-1.891830534351145,-0.008260937500000004,0.0054868896484375,1.8198885009765626,0,0,0
835,-0.1594534351145031,-0.750157251908397,0.9783984732824429,-0.005819531250000004,0.0037779052734375003,1.8237947509765626,0,0,0
836,1.0619206106870236,-1.9104625954198473,-0.9299984732824426,-0.010946484375000004,0.0035337646484375003,1.8213533447265626,0,0,0
837,-0.6480030534351138,1.3414458015267177,-1.342212213740458,-0.010214062500000004,0.0057310302734375,1.8218416259765626,0,0,0
838,-1.5487664122137397,6.959766412213741,0.9325969465648856,-0.011434765625000004,0.0037779052734375003,1.8113435791015626,0,0,0
839,-2.8312091603053426,-3.4829816793893134,-1.0979374045801527,-0.010214062500000004,0.0025572021484375003,1.8242830322265626,0,0,0
840,-2.70907175572519,-2.9944320610687023,-0.02923511450381669,-0.007284375000000004,0.0103697021484375,1.8201326416015626,0,0,0
841,-0.7548732824427473,0.6544229007633587,4.108169465648855,-0.007772656250000004,0.0030454833984375003,1.8164705322265626,0,0,0
842,-2.8159419847328238,-2.0784015267175575,1.86389465648855,-0.005087109375000004,0.0040220458984375,1.8137849853515626,0,0,0
843,-0.9991480916030528,-0.9791648854961833,1.161604580152672,-0.008749218750000004,0.0047544677734375,1.8201326416015626,0,0,0
844,-0.44952977099236563,-2.353210687022901,2.1845053435114505,-0.008505078125000004,0.0035337646484375003,1.8208650634765626,0,0,0
845,-1.04494961832061,1.768926717557252,0.27610839694656497,-0.007040234375000004,0.0032896240234375003,1.8154939697265626,0,0,0
846,-0.9075450381679382,0.2269419847328244,-1.4338152671755724,-0.009725781250000004,0.0042661865234375,1.8257478759765626,0,0,0
847,-3.655636641221373,-0.1547374045801527,-1.1132045801526718,-0.007040234375000004,0.0042661865234375,1.8237947509765626,0,0,0
848,-0.9991480916030528,1.0055679389312977,1.5585511450381682,-0.006551953125000004,0.0035337646484375003,1.8208650634765626,0,0,0
849,1.3977984732824433,1.5704534351145039,0.7341236641221376,-0.008260937500000004,0.0084165771484375,1.8211092041015626,0,0,0
850,-1.9762473282442743,-1.7730580152671755,1.4822152671755726,-0.008749218750000004,0.0045103271484375,1.8225740478515626,0,0,0
851,-0.3579267175572512,1.1887740458015268,1.7570244274809161,-0.011434765625000004,0.0025572021484375003,1.8201326416015626,0,0,0
852,-1.2739572519083964,-0.9638977099236642,3.314276335877863,-0.012167187500000004,0.0045103271484375,1.8237947509765626,0,0,0
853,-0.7701404580152664,0.3643465648854962,0.6119862595419848,-0.007284375000000004,0.0020689208984375003,1.8172029541015626,0,0,0
854,-1.6251022900763352,-1.5440503816793893,-0.63992213740458,0.001016406249999996,0.0028013427734375003,1.8169588134765626,0,0,0
855,-0.9228122137404573,0.3490793893129771,1.0242000000000002,-0.007772656250000004,0.0079282958984375,1.8115877197265626,0,0,0
856,-0.7243389312977091,0.18114045801526715,0.5661847328244276,-0.006796093750000004,0.0052427490234375,1.8237947509765626,0,0,0
857,-1.21288854961832,0.6391557251908396,3.1310702290076335,-0.011190625000000004,0.0037779052734375003,1.8250154541015626,0,0,0
858,-0.9075450381679382,1.8757969465648856,-0.33457862595419835,-0.012167187500000004,0.0086607177734375,1.8118318603515626,0,0,0
859,-0.678537404580152,-1.8951954198473282,-0.9147312977099236,-0.005575390625000004,0.0064634521484375,1.8233064697265626,0,0,0
860,0.6497068702290083,2.715491603053435,0.2913755725190841,-0.010458203125000004,0.0037779052734375003,1.8198885009765626,0,0,0
861,-0.2357893129770985,-0.18527175572519086,4.047100763358778,-0.008260937500000004,0.0035337646484375003,1.8272127197265626,0,0,0
862,-0.9533465648854955,1.4483160305343512,1.52801679389313,-0.010702343750000004,0.0054868896484375,1.8164705322265626,0,0,0
863,0.7260427480916039,0.21167480916030532,-0.18190687022900753,-0.007284375000000004,-0.0003724853515624997,1.8176912353515626,0,0,0
864,-2.800674809160305,2.364346564885496,-0.63992213740458,-0.013143750000000004,0.0062193115234375,1.8396638916015626,0,0,0
865,-1.8083083969465643,1.952132824427481,3.2532076335877864,-0.008505078125000004,0.0089048583984375,1.8194002197265626,0,0,0
866,-0.12891908396946494,1.4635832061068703,4.902062595419847,-0.006063671875000004,0.0042661865234375,1.8220857666015626,0,0,0
867,2.084821374045802,-2.0784015267175575,0.5509175572519085,-0.008749218750000004,0.0074400146484375,1.8198885009765626,0,0,0
868,-2.9075450381679384,3.2345755725190837,2.7799251908396947,-0.009237500000000004,0.0047544677734375,1.8157381103515626,0,0,0
869,-1.060216793893129,3.1124381679389312,-1.555952671755725,-0.007284375000000004,0.0035337646484375003,1.8196443603515626,0,0,0
870,-1.1976213740458008,0.8223618320610686,1.4822152671755726,-0.008260937500000004,0.0049986083984375,1.8215974853515626,0,0,0
871,-0.44952977099236563,-0.4295465648854962,1.3906122137404582,-0.011190625000000004,0.0010923583984375003,1.8167146728515626,0,0,0
872,-1.579300763358778,0.7612931297709923,3.1616045801526718,-0.013143750000000004,0.0010923583984375003,1.8186677978515626,0,0,0
873,-1.7014381679389305,0.19640763358778623,0.13870381679389324,-0.006551953125000004,0.0025572021484375003,1.8191560791015626,0,0,0
874,-0.144186259541984,-0.8570274809160305,3.2990091603053435,-0.003622265625000004,0.0064634521484375,1.8399080322265626,0,0,0
875,-1.2739572519083964,1.7383923664122138,-1.342212213740458,-0.007040234375000004,0.0081724365234375,1.8103670166015626,0,0,0
876,1.871080916030535,-1.4371801526717556,-0.3651129770992365,-0.009237500000000004,0.0023130615234375003,1.8167146728515626,0,0,0
877,0.2374931297709931,-0.6738213740458016,2.1387038167938934,-0.007772656250000004,0.0057310302734375,1.8164705322265626,0,0,0
878,-0.9228122137404573,3.265109923664122,-0.3193114503816793,-0.011434765625000004,0.0013364990234375003,1.8174470947265626,0,0,0
879,-1.3655603053435108,-0.07840152671755726,1.039467175572519,-0.012167187500000004,0.0035337646484375003,1.8223299072265626,0,0,0
880,-1.3197587786259535,-1.315042748091603,2.795192366412214,-0.009725781250000004,0.0049986083984375,1.8235506103515626,0,0,0
881,1.2451267175572527,0.4559496183206107,-1.9376320610687021,-0.010214062500000004,0.0076841552734375,1.8220857666015626,0,0,0
882,-0.846476335877862,2.5017511450381678,-1.4796167938931297,-0.009237500000000004,0.0062193115234375,1.8186677978515626,0,0,0
883,-0.4037282442748084,-1.1776381679389312,0.993665648854962,-0.010458203125000004,-0.0008607666015624997,1.8206209228515626,0,0,0
884,-2.8312091603053426,-0.44481374045801525,-1.388013740458015,-0.007040234375000004,0.0057310302734375,1.8228181884765626,0,0,0
885,0.20695877862595494,-0.7806916030534352,2.7341236641221376,-0.004354687500000004,0.0052427490234375,1.8211092041015626,0,0,0
886,-0.9075450381679382,0.30327786259541983,3.4974824427480917,-0.006063671875000004,0.0042661865234375,1.8201326416015626,0,0,0
887,-2.5716671755725184,0.08953740458015266,0.5661847328244276,-0.010702343750000004,0.0057310302734375,1.8184236572265626,0,0,0
888,-1.060216793893129,-1.1929053435114503,3.008932824427481,-0.006551953125000004,0.0057310302734375,1.8181795166015626,0,0,0
889,-0.9991480916030528,-0.3074091603053435,3.0852687022900764,-0.008505078125000004,0.0081724365234375,1.8191560791015626,0,0,0
890,-2.9533465648854955,-7.376111450381679,-1.2811435114503815,-0.009969921875000004,0.0057310302734375,1.8245271728515626,0,0,0
891,-0.327392366412213,-0.3684778625954198,-0.5025175572519083,-0.010458203125000004,-0.0006166259765624997,1.8208650634765626,0,0,0
892,-1.0296824427480908,2.9903007633587784,5.405879389312977,-0.009725781250000004,0.0018247802734375003,1.8201326416015626,0,0,0
893,-0.2357893129770985,-1.315042748091603,0.27610839694656497,-0.010214062500000004,0.0069517333984375,1.8191560791015626,0,0,0
894,-0.6327358778625947,-2.963897709923664,-2.1361053435114505,-0.007528515625000004,0.0047544677734375,1.8164705322265626,0,0,0
895,-0.312125190839694,2.6544229007633584,0.001299236641221474,-0.008505078125000004,0.0013364990234375003,1.8277010009765626,0,0,0
896,-3.5182320610687015,-1.86466106870229,-2.044502290076336,-0.006796093750000004,0.0052427490234375,1.8206209228515626,0,0,0
897,-1.5182320610687017,1.784193893129771,0.2913755725190841,-0.006796093750000004,0.0045103271484375,1.8245271728515626,0,0,0
898,-1.2434229007633582,-2.1700045801526717,-3.9376320610687023,-0.008505078125000004,0.0035337646484375003,1.8194002197265626,0,0,0
899,-1.0754839694656482,-0.5516839694656489,0.5661847328244276,-0.003622265625000004,0.0042661865234375,1.8399080322265626,0,0,0
900,-1.2739572519083964,1.8605297709923665,2.7188564885496183,-0.009481640625000004,0.0076841552734375,1.8174470947265626,0,0,0
901,-1.3502931297709917,-2.6890885496183206,-0.09030381679389302,-0.011190625000000004,0.0030454833984375003,1.8228181884765626,0,0,0
902,-0.22052213740457943,1.4941175572519085,-0.13610534351145026,-0.011678906250000004,0.0074400146484375,1.8228181884765626,0,0,0
903,-2.9075450381679384,-2.0784015267175575,2.993665648854962,-0.013387890625000004,0.0049986083984375,1.8284334228515626,0,0,0
904,1.855813740458016,3.1887740458015266,-1.6170213740458015,-0.004842968750000004,0.0028013427734375003,1.8196443603515626,0,0,0
905,-0.29685801526717487,5.249842748091603,-0.7315251908396945,-0.006307812500000004,0.0059751708984375,1.8264802978515626,0,0,0
906,-1.21288854961832,0.5628198473282442,3.176871755725191,-0.010946484375000004,0.0020689208984375003,1.8247713134765626,0,0,0
907,0.2374931297709931,2.486483969465649,4.550917557251908,-0.028036328125000003,0.0025572021484375003,1.8347810791015626,0,0,0
908,-0.44952977099236563,0.8528961832061068,0.8104595419847329,-0.008016796875000004,0.0032896240234375003,1.8206209228515626,0,0,0
909,-1.4876977099236635,0.4864839694656488,-0.5483190839694655,-0.010214062500000004,0.0035337646484375003,1.8255037353515626,0,0,0
910,0.6344396946564893,0.3490793893129771,-1.357479389312977,-0.007284375000000004,0.0052427490234375,1.8250154541015626,0,0,0
911,-0.0373160305343504,0.5780870229007633,-0.33457862595419835,-0.006551953125000004,0.0013364990234375003,1.8220857666015626,0,0,0
912,-1.1670870229007626,-1.4677145038167938,2.337177099236641,-0.009969921875000004,0.0064634521484375,1.8379549072265626,0,0,0
913,-2.4342625954198467,1.1887740458015268,1.8180931297709924,-0.011190625000000004,0.0057310302734375,1.8223299072265626,0,0,0
914,-2.9533465648854955,-6.108935877862595,4.337177099236641,-0.008749218750000004,0.0008482177734375003,1.8198885009765626,0,0,0
915,-2.312125190839694,3.12770534351145,-0.33457862595419835,-0.011923046875000004,0.0049986083984375,1.8225740478515626,0,0,0
916,-0.29685801526717487,-1.5287832061068702,-1.8460290076335877,-0.007528515625000004,0.0015806396484375003,1.8218416259765626,0,0,0
917,-0.25105648854961754,1.6467893129770994,-1.357479389312977,-0.003133984375000004,0.0057310302734375,1.8230623291015626,0,0,0
918,-2.8159419847328238,-0.44481374045801525,2.840993893129771,-0.002645703125000004,0.0067075927734375,1.8267244384765626,0,0,0
919,-0.8159419847328238,-1.8951954198473282,2.8257267175572522,-0.002401562500000004,0.0003599365234375003,1.8384431884765626,0,0,0
920,-1.4418961832061061,-3.3455770992366416,1.7112229007633588,-0.007772656250000004,0.0032896240234375003,1.8159822509765626,0,0,0
