Number,Gyro_X,Gyro_Y,Gyro_Z,Acc_X,Acc_Y,Acc_Z
1,0.010549618320611076,-0.023438931297709603,0.0016374045801545722,-0.0022287597656250025,-0.00034033203125001,0.9988104248046874
2,0.010549618320611076,-0.0005381679389309946,0.009270992366414127,0.0002126464843749975,0.00063623046874999,1.0071112060546874
3,0.025816793893130185,0.014729007633588087,0.0016374045801545722,-0.0034494628906250025,0.00039208984374999,1.0075994873046874
4,0.002916030534351577,0.022362595419847642,0.0016374045801545722,0.017058349609375,-0.00229345703125001,1.0071112060546874
5,-0.019984732824427087,0.022362595419847642,0.0016374045801545722,0.004607177734374997,0.00356591796874999,0.9985662841796874
6,-0.027618320610686586,-0.015805343511450076,0.0016374045801545722,0.0019216308593749975,0.00332177734374999,1.0054022216796874
7,0.010549618320611076,-0.023438931297709603,0.0016374045801545722,-0.011750244140625003,0.00014794921874999,0.9980780029296874
8,-0.012351145038167533,-0.0005381679389309946,0.0016374045801545722,-0.0005197753906250025,-0.00131689453125001,0.9963690185546874
9,0.01818320610687063,0.00709541984732856,0.009270992366414127,-0.0012521972656250025,0.00429833984374999,1.0071112060546874
10,-0.004717557251907978,-0.008171755725190522,0.0016374045801545722,0.0009450683593749975,0.00307763671874999,1.0190740966796874
11,0.01818320610687063,0.00709541984732856,-0.005996183206104955,-0.0002756347656250025,0.00332177734374999,1.0041815185546874
12,-0.027618320610686586,-0.008171755725190522,-0.01362977099236451,-0.0010080566406250025,-9.619140625001e-05,1.0068670654296874
13,-0.012351145038167533,0.022362595419847642,0.0016374045801545722,0.0024099121093749975,0.00185693359374999,1.0066229248046874
14,-0.004717557251907978,-0.008171755725190522,0.009270992366414127,-0.0034494628906250025,0.00356591796874999,0.9966131591796874
15,0.01818320610687063,-0.023438931297709603,0.0016374045801545722,0.0011892089843749975,0.00112451171874999,1.0010076904296874
16,0.010549618320611076,0.014729007633588087,-0.005996183206104955,0.004851318359374997,-0.00034033203125001,1.0019842529296874
17,0.002916030534351577,-0.008171755725190522,-0.01362977099236451,0.007292724609374997,0.00039208984374999,0.9980780029296874
18,-0.004717557251907978,0.014729007633588087,-0.005996183206104955,0.0014333496093749975,-0.00058447265625001,1.0029608154296874
19,-0.004717557251907978,-0.008171755725190522,0.009270992366414127,-0.005402587890625003,-0.00131689453125001,1.0002752685546874
20,-0.012351145038167533,-0.0005381679389309946,0.0016374045801545722,-0.0005197753906250025,0.00161279296874999,0.9953924560546874
21,-0.004717557251907978,-0.0005381679389309946,0.009270992366414127,-0.0032053222656250025,-0.00351416015625001,1.0041815185546874
22,-0.004717557251907978,0.014729007633588087,0.009270992366414127,0.006804443359374997,0.00503076171874999,1.0032049560546874
23,0.010549618320611076,0.014729007633588087,-0.005996183206104955,-0.0012521972656250025,-0.00131689453125001,0.9978338623046874
24,-0.012351145038167533,0.00709541984732856,0.0016374045801545722,-0.0024729003906250025,0.00039208984374999,0.9997869873046874
25,-0.004717557251907978,-0.0005381679389309946,-0.01362977099236451,0.0019216308593749975,0.00332177734374999,0.9958807373046874
26,0.002916030534351577,-0.008171755725190522,-0.005996183206104955,0.0019216308593749975,0.00210107421874999,0.9988104248046874
27,-0.012351145038167533,0.00709541984732856,-0.005996183206104955,0.0016774902343749975,-9.619140625001e-05,1.0012518310546874
28,0.002916030534351577,0.00709541984732856,0.016904580152673654,0.0021657714843749975,0.00405419921874999,1.0058905029296874
29,-0.004717557251907978,0.014729007633588087,0.009270992366414127,-0.0017404785156250025,0.00014794921874999,1.0041815185546874
30,-0.012351145038167533,0.00709541984732856,0.009270992366414127,0.015593505859374997,0.00112451171874999,0.9968572998046874
31,0.01818320610687063,0.00709541984732856,0.0016374045801545722,-0.0012521972656250025,-0.00375830078125001,0.9975897216796874
32,0.002916030534351577,-0.0005381679389309946,0.009270992366414127,0.0021657714843749975,0.00136865234374999,1.0010076904296874
33,0.002916030534351577,-0.0005381679389309946,-0.005996183206104955,0.017302490234375,-0.00375830078125001,1.0012518310546874
34,-0.004717557251907978,-0.023438931297709603,0.009270992366414127,0.0026540527343749975,0.00478662109374999,0.9963690185546874
35,-0.012351145038167533,0.014729007633588087,-0.021263358778624036,0.019011474609375,0.00136865234374999,0.9971014404296874
36,0.002916030534351577,0.029996183206107183,0.009270992366414127,0.004363037109374997,0.00356591796874999,0.9956365966796874
37,-0.004717557251907978,-0.015805343511450076,-0.005996183206104955,-0.011994384765625003,0.00234521484374999,0.9951483154296874
38,0.002916030534351577,-0.008171755725190522,-0.005996183206104955,0.0016774902343749975,-0.01035009765625001,1.0044256591796874
39,0.002916030534351577,-0.0005381679389309946,0.016904580152673654,-0.0032053222656250025,-0.01547705078125001,0.9992987060546874
40,0.002916030534351577,0.014729007633588087,0.016904580152673654,0.0028981933593749975,-0.00253759765625001,0.9975897216796874
41,-0.004717557251907978,-0.0005381679389309946,0.0016374045801545722,0.017058349609375,0.00332177734374999,0.9953924560546874
42,-0.004717557251907978,-0.0005381679389309946,0.032171755725192736,-0.011750244140625003,0.00283349609374999,1.0000311279296874
43,-0.012351145038167533,-0.0005381679389309946,-0.005996183206104955,0.0009450683593749975,0.00063623046874999,1.0017401123046874
44,-0.027618320610686586,-0.023438931297709603,0.0016374045801545722,-0.0012521972656250025,-0.00766455078125001,1.0010076904296874
45,-0.012351145038167533,0.022362595419847642,0.0016374045801545722,0.0004567871093749975,0.00234521484374999,1.0061346435546874
46,-0.004717557251907978,0.060530534351145346,-0.01362977099236451,-0.005158447265625003,-0.00058447265625001,1.0034490966796874
47,0.05635114503816835,-0.21427862595419817,0.009270992366414127,0.020476318359375,0.04970849609374999,0.9990545654296874
48,0.01818320610687063,0.1063320610687026,0.009270992366414127,0.014128662109374997,0.00381005859374999,1.0364080810546874
49,-0.004717557251907978,-0.04633969465648824,0.0016374045801545722,0.0011892089843749975,-0.00546728515625001,1.0036932373046874
50,0.025816793893130185,0.029996183206107183,-0.005996183206104955,0.0031423339843749975,-0.00253759765625001,0.9914862060546874
51,-0.019984732824427087,-0.023438931297709603,0.009270992366414127,-0.0022287597656250025,0.00966943359374999,1.0080877685546874
52,0.01818320610687063,-0.023438931297709603,-0.005996183206104955,-0.003937744140625003,0.00844873046874999,0.9990545654296874
53,-0.004717557251907978,0.022362595419847642,-0.01362977099236451,0.0004567871093749975,0.00283349609374999,0.9834295654296874
54,-0.004717557251907978,-0.008171755725190522,0.0016374045801545722,0.005095458984374997,0.00088037109374999,1.0078436279296874
55,0.010549618320611076,0.022362595419847642,0.016904580152673654,0.005095458984374997,0.00039208984374999,1.0063787841796874
56,-0.012351145038167533,-0.023438931297709603,0.0016374045801545722,0.005583740234374997,-0.00204931640625001,1.0083319091796874
57,0.01818320610687063,-0.0005381679389309946,-0.005996183206104955,-0.004914306640625003,0.00527490234374999,0.9941717529296874
58,-0.004717557251907978,0.00709541984732856,0.009270992366414127,-0.006623291015625003,0.00576318359374999,1.0093084716796874
59,0.010549618320611076,0.022362595419847642,-0.021263358778624036,-0.0022287597656250025,0.00796044921874999,1.0024725341796874
60,0.002916030534351577,-0.031072519083969158,-0.01362977099236451,-0.004181884765625003,0.00283349609374999,1.0014959716796874
61,0.002916030534351577,-0.015805343511450076,0.009270992366414127,-0.0019846191406250025,0.00307763671874999,0.9936834716796874
62,-0.027618320610686586,0.022362595419847642,0.016904580152673654,0.005095458984374997,-0.00058447265625001,0.9992987060546874
63,0.01818320610687063,0.00709541984732856,0.016904580152673654,0.0007009277343749975,-0.00473486328125001,0.9961248779296874
64,-0.027618320610686586,0.00709541984732856,-0.005996183206104955,0.004363037109374997,-0.00058447265625001,1.0032049560546874
65,0.041083969465649295,-0.0005381679389309946,-0.005996183206104955,-0.0029611816406250025,0.00283349609374999,1.0041815185546874
66,-0.012351145038167533,0.00709541984732856,0.0016374045801545722,-0.003937744140625003,-0.00107275390625001,0.9958807373046874
67,-0.019984732824427087,-0.03870610687022871,-0.021263358778624036,-0.006135009765625003,0.00014794921874999,0.9953924560546874
68,0.002916030534351577,-0.0005381679389309946,0.0016374045801545722,0.0019216308593749975,-0.00400244140625001,1.0068670654296874
69,-0.012351145038167533,-0.008171755725190522,0.0016374045801545722,0.0033864746093749975,0.00112451171874999,0.9924627685546874
70,-0.004717557251907978,-0.023438931297709603,0.016904580152673654,0.011198974609374997,0.00258935546874999,0.9929510498046874
71,-0.004717557251907978,0.014729007633588087,-0.005996183206104955,0.0009450683593749975,-0.00180517578125001,1.0227362060546874
72,-0.004717557251907978,0.014729007633588087,-0.01362977099236451,-0.011017822265625003,0.00625146484374999,1.0012518310546874
73,0.01818320610687063,0.00709541984732856,0.0016374045801545722,0.0014333496093749975,-0.01816259765625001,0.9983221435546874
74,0.002916030534351577,0.00709541984732856,0.02453816793893321,-0.008088134765625003,-0.00351416015625001,1.0012518310546874
75,-0.027618320610686586,0.029996183206107183,0.016904580152673654,-0.005402587890625003,0.00332177734374999,1.0119940185546874
76,0.002916030534351577,-0.015805343511450076,0.016904580152673654,0.0019216308593749975,0.00210107421874999,0.9988104248046874
77,0.010549618320611076,0.00709541984732856,0.02453816793893321,0.0016774902343749975,-0.00156103515625001,0.9809881591796874
78,0.002916030534351577,-0.008171755725190522,0.0016374045801545722,-0.0017404785156250025,0.00283349609374999,0.9944158935546874
79,0.010549618320611076,0.014729007633588087,0.0016374045801545722,-0.0029611816406250025,-0.00229345703125001,0.9975897216796874
80,0.002916030534351577,0.00709541984732856,0.0016374045801545722,0.0002126464843749975,0.00014794921874999,1.0068670654296874
81,-0.004717557251907978,0.00709541984732856,-0.005996183206104955,-0.011506103515625003,-0.00400244140625001,1.0005194091796874
82,0.002916030534351577,-0.008171755725190522,0.0016374045801545722,0.004118896484374997,-0.01596533203125001,0.9997869873046874
83,0.002916030534351577,0.014729007633588087,0.0016374045801545722,0.0019216308593749975,-0.00204931640625001,0.9944158935546874
84,-0.012351145038167533,0.014729007633588087,-0.005996183206104955,-0.003937744140625003,-0.00400244140625001,0.9958807373046874
85,0.010549618320611076,0.00709541984732856,0.0016374045801545722,0.004851318359374997,0.00185693359374999,1.0029608154296874
86,0.01818320610687063,-0.008171755725190522,0.016904580152673654,-0.004426025390625003,-9.619140625001e-05,0.9924627685546874
87,-0.004717557251907978,-0.015805343511450076,0.009270992366414127,0.004363037109374997,0.00454248046874999,1.0007635498046874
88,0.002916030534351577,0.00709541984732856,0.009270992366414127,-0.0010080566406250025,0.00161279296874999,0.9983221435546874
89,-0.027618320610686586,0.014729007633588087,-0.005996183206104955,-0.0005197753906250025,0.00454248046874999,1.0017401123046874
90,0.025816793893130185,-0.0005381679389309946,0.0016374045801545722,-0.0029611816406250025,0.00820458984374999,0.9944158935546874
91,-0.012351145038167533,-0.015805343511450076,0.0016374045801545722,0.0014333496093749975,0.00381005859374999,1.0041815185546874
92,-0.004717557251907978,-0.008171755725190522,-0.005996183206104955,-0.0024729003906250025,0.00332177734374999,1.0027166748046874
93,-0.004717557251907978,-0.015805343511450076,0.009270992366414127,-0.007843994140625003,-0.00473486328125001,0.9929510498046874
94,0.002916030534351577,-0.023438931297709603,0.016904580152673654,0.005583740234374997,-0.00497900390625001,1.0017401123046874
95,0.002916030534351577,0.00709541984732856,0.016904580152673654,0.0004567871093749975,-0.00253759765625001,1.0014959716796874
96,0.002916030534351577,0.014729007633588087,0.009270992366414127,0.0004567871093749975,0.00307763671874999,1.0088201904296874
97,0.002916030534351577,-0.0005381679389309946,0.0016374045801545722,-0.0036936035156250025,0.00332177734374999,1.0010076904296874
98,0.002916030534351577,-0.008171755725190522,0.0016374045801545722,-0.007111572265625003,-0.00302587890625001,1.0063787841796874
99,0.010549618320611076,-0.008171755725190522,0.0016374045801545722,-0.0034494628906250025,-0.00473486328125001,1.0049139404296874
100,-0.012351145038167533,0.00709541984732856,0.0016374045801545722,0.0016774902343749975,-0.00302587890625001,1.0049139404296874
101,-0.004717557251907978,-0.0005381679389309946,0.0016374045801545722,0.0019216308593749975,0.00893701171874999,0.9971014404296874
102,-0.004717557251907978,0.022362595419847642,-0.01362977099236451,0.008025146484374997,0.00210107421874999,1.0007635498046874
103,0.010549618320611076,0.00709541984732856,-0.01362977099236451,-0.0017404785156250025,0.00722802734374999,0.9966131591796874
104,-0.004717557251907978,-0.008171755725190522,-0.01362977099236451,-0.003937744140625003,0.00185693359374999,1.0022283935546874
105,-0.012351145038167533,-0.008171755725190522,0.0016374045801545722,-0.0027170410156250025,0.00210107421874999,0.9978338623046874
106,0.002916030534351577,-0.015805343511450076,-0.01362977099236451,-0.0017404785156250025,-0.00180517578125001,0.9978338623046874
107,0.002916030534351577,0.014729007633588087,0.0016374045801545722,0.010466552734374997,-0.00497900390625001,1.0007635498046874
108,-0.012351145038167533,-0.008171755725190522,0.009270992366414127,-0.0007639160156250025,-0.00107275390625001,1.0051580810546874
109,-0.004717557251907978,-0.023438931297709603,0.016904580152673654,-0.004670166015625003,0.00088037109374999,0.9936834716796874
110,0.010549618320611076,-0.0005381679389309946,0.0016374045801545722,-0.0010080566406250025,0.00332177734374999,1.0063787841796874
111,0.002916030534351577,-0.008171755725190522,-0.005996183206104955,-0.0029611816406250025,-0.00058447265625001,0.9978338623046874
112,0.002916030534351577,-0.0005381679389309946,-0.01362977099236451,-0.003937744140625003,-0.00156103515625001,0.9870916748046874
113,-0.019984732824427087,-0.008171755725190522,0.016904580152673654,-0.0034494628906250025,-0.00400244140625001,0.9973455810546874
114,-0.004717557251907978,0.00709541984732856,0.0016374045801545722,0.0014333496093749975,0.00136865234374999,1.0007635498046874
115,0.010549618320611076,-0.0005381679389309946,0.009270992366414127,0.0007009277343749975,-0.00156103515625001,1.0010076904296874
116,0.010549618320611076,-0.008171755725190522,0.016904580152673654,-0.0036936035156250025,0.00014794921874999,0.9980780029296874
117,-0.019984732824427087,-0.0005381679389309946,0.0016374045801545722,-0.0019846191406250025,0.00210107421874999,0.9939276123046874
118,0.010549618320611076,0.014729007633588087,-0.005996183206104955,-0.0019846191406250025,0.00014794921874999,1.0073553466796874
119,-0.004717557251907978,-0.008171755725190522,0.0016374045801545722,0.0019216308593749975,0.00161279296874999,0.9997869873046874
120,-0.012351145038167533,-0.008171755725190522,0.009270992366414127,0.0002126464843749975,0.00600732421874999,0.9897772216796874
121,0.002916030534351577,-0.008171755725190522,0.009270992366414127,0.008513427734374997,-0.00058447265625001,1.0083319091796874
122,0.002916030534351577,-0.023438931297709603,0.009270992366414127,0.008513427734374997,0.00283349609374999,0.9992987060546874
123,-0.004717557251907978,0.00709541984732856,0.016904580152673654,0.0004567871093749975,0.00063623046874999,1.0039373779296874
124,0.025816793893130185,-0.0005381679389309946,0.0016374045801545722,-0.0007639160156250025,-0.00302587890625001,1.0041815185546874
125,-0.042885496183205696,0.014729007633588087,0.0016374045801545722,-0.0010080566406250025,-0.00400244140625001,0.9985662841796874
126,0.002916030534351577,-0.008171755725190522,-0.005996183206104955,-0.0014963378906250025,-0.00180517578125001,1.0044256591796874
127,-0.012351145038167533,0.00709541984732856,0.0016374045801545722,0.004851318359374997,-0.00034033203125001,1.0007635498046874
128,0.01818320610687063,0.022362595419847642,0.009270992366414127,0.018034912109375,-0.00107275390625001,1.0034490966796874
129,-0.012351145038167533,-0.0005381679389309946,-0.01362977099236451,0.0026540527343749975,-0.00156103515625001,0.9978338623046874
130,-0.012351145038167533,-0.0005381679389309946,-0.01362977099236451,0.0028981933593749975,-0.00058447265625001,1.0002752685546874
131,0.01818320610687063,-0.008171755725190522,-0.005996183206104955,-0.004914306640625003,-0.00327001953125001,1.0017401123046874
132,0.002916030534351577,-0.0005381679389309946,-0.005996183206104955,-0.0019846191406250025,-0.00278173828125001,1.0044256591796874
133,-0.004717557251907978,0.014729007633588087,0.02453816793893321,-0.008576416015625003,-0.00351416015625001,1.0000311279296874
134,0.010549618320611076,-0.015805343511450076,-0.01362977099236451,-3.1494140625002495e-05,0.00161279296874999,0.9980780029296874
135,0.01818320610687063,0.022362595419847642,0.009270992366414127,0.0004567871093749975,-0.01694189453125001,1.0024725341796874
136,0.025816793893130185,-0.008171755725190522,-0.005996183206104955,0.0014333496093749975,-0.00229345703125001,0.9973455810546874
137,0.002916030534351577,0.022362595419847642,0.0016374045801545722,-0.0012521972656250025,-0.00497900390625001,1.0036932373046874
138,0.002916030534351577,0.014729007633588087,0.0016374045801545722,-0.0014963378906250025,0.00136865234374999,0.9980780029296874
139,-0.019984732824427087,-0.008171755725190522,-0.005996183206104955,-0.0024729003906250025,-0.00229345703125001,1.0051580810546874
140,0.002916030534351577,-0.0005381679389309946,0.009270992366414127,-0.0017404785156250025,0.00283349609374999,1.0061346435546874
141,0.01818320610687063,-0.015805343511450076,-0.005996183206104955,0.0002126464843749975,-0.00107275390625001,0.9946600341796874
142,0.002916030534351577,-0.008171755725190522,0.0016374045801545722,0.0011892089843749975,-0.00986181640625001,1.0083319091796874
143,0.01818320610687063,0.00709541984732856,0.009270992366414127,0.0007009277343749975,-0.00229345703125001,1.0058905029296874
144,0.01818320610687063,0.00709541984732856,0.009270992366414127,0.0024099121093749975,-0.00229345703125001,0.9946600341796874
145,0.01818320610687063,-0.0005381679389309946,0.032171755725192736,-0.004181884765625003,0.00332177734374999,1.0022283935546874
146,-0.004717557251907978,-0.031072519083969158,0.016904580152673654,0.004607177734374997,-0.00034033203125001,0.9980780029296874
147,0.002916030534351577,0.00709541984732856,0.032171755725192736,-0.0014963378906250025,0.00161279296874999,1.0039373779296874
148,-0.004717557251907978,0.00709541984732856,0.0016374045801545722,-0.004426025390625003,0.00161279296874999,1.0027166748046874
149,-0.004717557251907978,0.00709541984732856,0.0016374045801545722,-0.0022287597656250025,-0.01865087890625001,1.0014959716796874
150,-0.019984732824427087,-0.0005381679389309946,0.0016374045801545722,-0.0010080566406250025,0.00185693359374999,0.9997869873046874
151,0.002916030534351577,-0.008171755725190522,0.016904580152673654,-0.0017404785156250025,0.00210107421874999,1.0071112060546874
152,0.002916030534351577,0.00709541984732856,-0.005996183206104955,0.018034912109375,-0.00839697265625001,0.9988104248046874
153,-0.004717557251907978,-0.0005381679389309946,0.009270992366414127,-0.0024729003906250025,0.00112451171874999,0.9934393310546874
154,0.002916030534351577,0.00709541984732856,-0.005996183206104955,0.013152099609374997,0.00332177734374999,1.0029608154296874
155,0.002916030534351577,0.00709541984732856,0.009270992366414127,-0.0017404785156250025,-0.00131689453125001,1.0014959716796874
156,0.002916030534351577,-0.008171755725190522,-0.01362977099236451,0.0031423339843749975,-9.619140625001e-05,0.9961248779296874
157,0.002916030534351577,-0.008171755725190522,-0.01362977099236451,0.0019216308593749975,0.00088037109374999,0.9944158935546874
158,0.010549618320611076,-0.0005381679389309946,0.02453816793893321,0.0021657714843749975,-0.00107275390625001,0.9980780029296874
159,0.002916030534351577,0.00709541984732856,0.0016374045801545722,-0.0010080566406250025,0.00600732421874999,1.0029608154296874
160,0.002916030534351577,0.014729007633588087,-0.01362977099236451,0.006804443359374997,-0.00034033203125001,1.0061346435546874
161,-0.004717557251907978,0.00709541984732856,0.0016374045801545722,0.0021657714843749975,0.00161279296874999,1.0024725341796874
162,0.010549618320611076,0.00709541984732856,0.016904580152673654,-0.004181884765625003,-0.00351416015625001,1.0066229248046874
163,0.002916030534351577,-0.0005381679389309946,-0.005996183206104955,-0.005890869140625003,-0.00204931640625001,1.0017401123046874
164,0.025816793893130185,-0.008171755725190522,0.016904580152673654,-0.0027170410156250025,0.00039208984374999,0.9953924560546874
165,-0.012351145038167533,-0.008171755725190522,0.0016374045801545722,-0.0002756347656250025,-0.00058447265625001,1.0022283935546874
166,0.002916030534351577,-0.008171755725190522,0.0016374045801545722,0.004851318359374997,0.00088037109374999,0.9973455810546874
167,0.002916030534351577,-0.008171755725190522,0.016904580152673654,0.0033864746093749975,-0.00449072265625001,1.0019842529296874
168,-0.012351145038167533,-0.015805343511450076,0.0016374045801545722,0.0007009277343749975,-0.00058447265625001,1.0046697998046874
169,0.01818320610687063,-0.015805343511450076,-0.021263358778624036,-0.003937744140625003,0.00039208984374999,1.0024725341796874
170,-0.004717557251907978,-0.031072519083969158,0.016904580152673654,-0.0014963378906250025,0.00503076171874999,0.9963690185546874
171,-0.004717557251907978,0.00709541984732856,-0.005996183206104955,0.0009450683593749975,0.00307763671874999,1.0014959716796874
172,-0.012351145038167533,-0.015805343511450076,0.0016374045801545722,0.017790771484375,-0.00229345703125001,1.0058905029296874
173,0.010549618320611076,-0.023438931297709603,0.009270992366414127,0.007048583984374997,0.00063623046874999,1.0019842529296874
174,0.002916030534351577,-0.008171755725190522,0.016904580152673654,0.013884521484374997,-0.00473486328125001,0.9939276123046874
175,-0.012351145038167533,-0.008171755725190522,0.016904580152673654,0.0014333496093749975,0.00136865234374999,0.9953924560546874
176,0.002916030534351577,-0.015805343511450076,0.0016374045801545722,0.0014333496093749975,-0.00424658203125001,0.9892889404296874
177,0.002916030534351577,0.014729007633588087,0.0016374045801545722,-0.0007639160156250025,0.00454248046874999,1.0041815185546874
178,-0.012351145038167533,0.00709541984732856,-0.005996183206104955,0.0021657714843749975,-0.00449072265625001,1.0010076904296874
179,-0.012351145038167533,-0.0005381679389309946,-0.005996183206104955,-0.004181884765625003,0.00185693359374999,1.0046697998046874
180,0.010549618320611076,-0.015805343511450076,0.009270992366414127,0.0016774902343749975,-0.00302587890625001,0.9995428466796874
181,-0.012351145038167533,0.00709541984732856,0.02453816793893321,-0.0012521972656250025,0.00088037109374999,1.0000311279296874
182,-0.012351145038167533,-0.0005381679389309946,0.0016374045801545722,-0.0007639160156250025,-0.00766455078125001,1.0068670654296874
183,0.01818320610687063,0.014729007633588087,0.032171755725192736,-0.0034494628906250025,-0.00156103515625001,1.0073553466796874
184,-0.004717557251907978,0.03762977099236672,0.009270992366414127,0.0033864746093749975,0.00576318359374999,0.9988104248046874
185,-0.004717557251907978,-0.0005381679389309946,0.016904580152673654,0.017546630859375,0.00332177734374999,1.0010076904296874
186,0.002916030534351577,0.00709541984732856,0.009270992366414127,-0.0029611816406250025,0.00234521484374999,1.0010076904296874
187,-0.004717557251907978,-0.0005381679389309946,0.009270992366414127,-0.0024729003906250025,-0.00424658203125001,0.9944158935546874
188,0.002916030534351577,0.00709541984732856,0.02453816793893321,-0.006623291015625003,0.00381005859374999,1.0019842529296874
189,0.025816793893130185,-0.0005381679389309946,-0.005996183206104955,0.0009450683593749975,0.00210107421874999,0.9985662841796874
190,0.002916030534351577,0.00709541984732856,0.0016374045801545722,0.0007009277343749975,0.00625146484374999,1.0017401123046874
191,-0.012351145038167533,-0.015805343511450076,0.0016374045801545722,-0.0022287597656250025,0.00039208984374999,0.9900213623046874
192,0.002916030534351577,-0.0005381679389309946,0.009270992366414127,0.0007009277343749975,0.00503076171874999,0.9978338623046874
193,-0.012351145038167533,0.00709541984732856,-0.005996183206104955,0.0002126464843749975,-0.00180517578125001,0.9953924560546874
194,-0.004717557251907978,-0.0005381679389309946,0.016904580152673654,-0.0029611816406250025,-0.00204931640625001,0.9992987060546874
195,-0.004717557251907978,-0.008171755725190522,-0.005996183206104955,-0.0014963378906250025,0.00283349609374999,1.0046697998046874
196,0.01818320610687063,-0.008171755725190522,-0.01362977099236451,0.0028981933593749975,-9.619140625001e-05,1.0007635498046874
197,0.01818320610687063,0.022362595419847642,0.0016374045801545722,0.004851318359374997,0.00063623046874999,1.0005194091796874
198,0.002916030534351577,0.014729007633588087,0.009270992366414127,0.0011892089843749975,0.00625146484374999,0.9961248779296874
199,0.002916030534351577,-0.0005381679389309946,0.009270992366414127,-0.0014963378906250025,0.00136865234374999,1.0010076904296874
200,0.010549618320611076,-0.008171755725190522,-0.01362977099236451,-0.0022287597656250025,0.00063623046874999,0.9944158935546874
201,-0.004717557251907978,0.022362595419847642,0.032171755725192736,-0.0002756347656250025,0.00332177734374999,0.9956365966796874
202,0.002916030534351577,0.00709541984732856,-0.01362977099236451,0.0011892089843749975,0.00161279296874999,1.0068670654296874
203,-0.004717557251907978,0.00709541984732856,-0.005996183206104955,-0.011017822265625003,0.00161279296874999,1.0075994873046874
204,0.002916030534351577,-0.008171755725190522,0.0016374045801545722,0.0004567871093749975,-0.00131689453125001,0.9992987060546874
205,0.002916030534351577,0.00709541984732856,0.009270992366414127,0.0011892089843749975,0.00747216796874999,0.9988104248046874
206,0.01818320610687063,0.00709541984732856,0.0016374045801545722,-0.0029611816406250025,-0.00034033203125001,1.0058905029296874
207,-0.012351145038167533,-0.008171755725190522,0.016904580152673654,-0.0007639160156250025,-0.00302587890625001,1.0049139404296874
208,0.002916030534351577,0.014729007633588087,-0.005996183206104955,0.0019216308593749975,0.00356591796874999,0.9961248779296874
209,0.002916030534351577,0.029996183206107183,0.016904580152673654,-0.011506103515625003,0.00307763671874999,1.0034490966796874
210,0.010549618320611076,-0.008171755725190522,0.02453816793893321,-0.008088134765625003,-0.00058447265625001,0.9880682373046874
211,-0.004717557251907978,-0.023438931297709603,0.02453816793893321,-0.005646728515625003,0.00088037109374999,0.9973455810546874
212,0.010549618320611076,0.00709541984732856,0.016904580152673654,0.0026540527343749975,0.00185693359374999,0.9988104248046874
213,-0.019984732824427087,-0.015805343511450076,0.0016374045801545722,-0.0036936035156250025,0.00356591796874999,1.0024725341796874
214,-0.019984732824427087,-0.008171755725190522,-0.005996183206104955,-0.0007639160156250025,0.00234521484374999,1.0080877685546874
215,0.01818320610687063,-0.0005381679389309946,0.009270992366414127,0.017302490234375,-0.00302587890625001,1.0005194091796874
216,0.002916030534351577,0.014729007633588087,0.009270992366414127,0.004607177734374997,0.00478662109374999,1.0054022216796874
217,-0.004717557251907978,0.00709541984732856,0.016904580152673654,-0.005158447265625003,-0.00156103515625001,0.9927069091796874
218,-0.004717557251907978,-0.015805343511450076,0.009270992366414127,-0.0034494628906250025,0.00088037109374999,0.9936834716796874
219,0.002916030534351577,0.014729007633588087,0.0016374045801545722,-0.0010080566406250025,0.00429833984374999,1.0054022216796874
220,0.002916030534351577,-0.015805343511450076,-0.005996183206104955,-0.010773681640625003,-0.00107275390625001,1.0014959716796874
221,0.002916030534351577,-0.015805343511450076,0.016904580152673654,-3.1494140625002495e-05,0.00722802734374999,1.0017401123046874
222,-0.027618320610686586,-0.0005381679389309946,0.009270992366414127,0.0031423339843749975,0.00234521484374999,1.0032049560546874
223,-0.004717557251907978,0.00709541984732856,-0.01362977099236451,0.004607177734374997,0.00283349609374999,1.0049139404296874
224,-0.004717557251907978,-0.008171755725190522,0.02453816793893321,-0.0002756347656250025,0.00112451171874999,1.0027166748046874
225,-0.004717557251907978,0.00709541984732856,0.009270992366414127,-0.0034494628906250025,0.00063623046874999,1.0022283935546874
226,-0.004717557251907978,0.00709541984732856,0.0016374045801545722,-0.0007639160156250025,0.00527490234374999,0.9997869873046874
227,-0.012351145038167533,-0.008171755725190522,0.016904580152673654,-0.0027170410156250025,0.00234521484374999,1.0073553466796874
228,0.002916030534351577,-0.015805343511450076,0.009270992366414127,-0.011261962890625003,0.00234521484374999,0.9985662841796874
229,-0.004717557251907978,-0.008171755725190522,0.0016374045801545722,0.005339599609374997,0.00527490234374999,1.0071112060546874
230,0.01818320610687063,-0.008171755725190522,-0.005996183206104955,0.0028981933593749975,-0.00375830078125001,1.0039373779296874
231,-0.004717557251907978,0.00709541984732856,0.0016374045801545722,-0.0002756347656250025,-0.00717626953125001,0.9997869873046874
232,-0.004717557251907978,-0.0005381679389309946,0.016904580152673654,0.017790771484375,0.00039208984374999,0.9990545654296874
233,0.010549618320611076,-0.0005381679389309946,0.016904580152673654,-0.004426025390625003,-0.00058447265625001,1.0012518310546874
234,0.010549618320611076,0.014729007633588087,-0.01362977099236451,0.0002126464843749975,-0.00131689453125001,1.0166326904296874
235,0.01818320610687063,-0.015805343511450076,0.009270992366414127,-0.007355712890625003,-0.00327001953125001,0.9944158935546874
236,-0.012351145038167533,-0.0005381679389309946,0.009270992366414127,-0.0014963378906250025,-0.00302587890625001,0.9995428466796874
237,-0.004717557251907978,-0.0005381679389309946,-0.01362977099236451,-0.0017404785156250025,-0.00375830078125001,1.0010076904296874
238,-0.019984732824427087,0.014729007633588087,0.0016374045801545722,-0.0019846191406250025,0.00088037109374999,1.0041815185546874
239,0.01818320610687063,-0.008171755725190522,0.016904580152673654,0.0004567871093749975,-0.00302587890625001,0.9978338623046874
240,-0.012351145038167533,0.00709541984732856,-0.005996183206104955,-0.0010080566406250025,0.00234521484374999,0.9971014404296874
241,0.010549618320611076,-0.015805343511450076,0.009270992366414127,-0.0002756347656250025,0.00112451171874999,1.0007635498046874
242,0.002916030534351577,0.00709541984732856,-0.01362977099236451,-0.0027170410156250025,0.00796044921874999,0.9956365966796874
243,0.002916030534351577,0.00709541984732856,-0.02889694656488359,-0.0010080566406250025,-0.00327001953125001,1.0029608154296874
244,0.03345038167938974,0.014729007633588087,0.009270992366414127,-0.0024729003906250025,0.00210107421874999,1.0046697998046874
245,0.03345038167938974,0.022362595419847642,0.02453816793893321,-0.0027170410156250025,0.00966943359374999,1.0041815185546874
246,-0.004717557251907978,-0.008171755725190522,0.02453816793893321,-0.005158447265625003,0.00478662109374999,1.0022283935546874
247,0.01818320610687063,0.022362595419847642,0.0016374045801545722,-0.0022287597656250025,0.00625146484374999,0.9951483154296874
248,-0.004717557251907978,-0.015805343511450076,-0.005996183206104955,-0.004181884765625003,-0.00253759765625001,1.0034490966796874
249,0.010549618320611076,0.00709541984732856,0.009270992366414127,-0.0019846191406250025,-0.00131689453125001,1.0229803466796874
250,0.010549618320611076,0.00709541984732856,0.0016374045801545722,-0.0010080566406250025,-0.00302587890625001,0.9802557373046874
251,0.01818320610687063,-0.0005381679389309946,0.009270992366414127,0.0024099121093749975,0.00210107421874999,1.0034490966796874
252,-0.019984732824427087,-0.0005381679389309946,0.009270992366414127,-0.011017822265625003,0.00210107421874999,1.0019842529296874
253,0.01818320610687063,0.00709541984732856,0.009270992366414127,0.0004567871093749975,-0.00058447265625001,0.9978338623046874
254,-0.004717557251907978,-0.008171755725190522,-0.005996183206104955,0.0033864746093749975,0.00112451171874999,1.0000311279296874
255,-0.004717557251907978,-0.015805343511450076,0.009270992366414127,-0.005402587890625003,0.00258935546874999,0.9971014404296874
256,0.025816793893130185,-0.015805343511450076,-0.005996183206104955,-0.0034494628906250025,0.00258935546874999,0.9963690185546874
257,-0.004717557251907978,-0.008171755725190522,-0.01362977099236451,-0.006867431640625003,-0.00131689453125001,0.9944158935546874
258,0.01818320610687063,-0.008171755725190522,0.016904580152673654,0.0016774902343749975,0.00161279296874999,1.0017401123046874
259,-0.004717557251907978,-0.015805343511450076,0.009270992366414127,-0.004181884765625003,0.00942529296874999,0.9946600341796874
260,-0.019984732824427087,-0.008171755725190522,0.0016374045801545722,-0.0022287597656250025,0.00454248046874999,1.0017401123046874
261,-0.012351145038167533,0.00709541984732856,-0.005996183206104955,0.005583740234374997,-0.00546728515625001,1.0054022216796874
262,0.010549618320611076,0.00709541984732856,0.032171755725192736,0.0019216308593749975,-0.00180517578125001,0.9995428466796874
263,-0.004717557251907978,0.014729007633588087,0.016904580152673654,0.0004567871093749975,-0.00375830078125001,0.9951483154296874
264,-0.012351145038167533,-0.008171755725190522,0.0016374045801545722,-0.0036936035156250025,-0.00229345703125001,0.9975897216796874
265,0.010549618320611076,0.014729007633588087,-0.01362977099236451,0.0009450683593749975,-0.00180517578125001,0.9997869873046874
266,0.01818320610687063,0.014729007633588087,-0.005996183206104955,-0.0032053222656250025,0.00234521484374999,0.9936834716796874
267,-0.004717557251907978,-0.023438931297709603,-0.005996183206104955,0.0031423339843749975,-0.00424658203125001,0.9992987060546874
268,0.010549618320611076,-0.0005381679389309946,0.009270992366414127,0.004851318359374997,-0.00229345703125001,1.0019842529296874
269,0.010549618320611076,-0.015805343511450076,0.0016374045801545722,-0.0022287597656250025,0.00649560546874999,1.0036932373046874
270,-0.004717557251907978,-0.0005381679389309946,0.016904580152673654,0.0009450683593749975,0.00673974609374999,0.9992987060546874
271,0.010549618320611076,-0.008171755725190522,0.009270992366414127,-0.0029611816406250025,-0.00156103515625001,0.9953924560546874
272,-0.004717557251907978,-0.008171755725190522,0.016904580152673654,0.0002126464843749975,-0.00375830078125001,1.0051580810546874
273,0.002916030534351577,0.014729007633588087,0.009270992366414127,0.0024099121093749975,0.00063623046874999,1.0036932373046874
274,-0.012351145038167533,0.00709541984732856,0.0016374045801545722,-0.0007639160156250025,0.00405419921874999,1.0058905029296874
275,0.01818320610687063,0.00709541984732856,0.016904580152673654,-0.0032053222656250025,-0.00302587890625001,1.0017401123046874
276,0.025816793893130185,-0.0005381679389309946,0.009270992366414127,0.0021657714843749975,-0.00034033203125001,0.9880682373046874
277,0.01818320610687063,0.014729007633588087,0.0016374045801545722,-0.0034494628906250025,-0.00302587890625001,0.9961248779296874
278,-0.004717557251907978,0.00709541984732856,-0.005996183206104955,0.0004567871093749975,0.00258935546874999,0.9944158935546874
279,0.01818320610687063,0.00709541984732856,-0.021263358778624036,-0.0005197753906250025,-0.00229345703125001,1.0017401123046874
280,0.025816793893130185,-0.0005381679389309946,0.016904580152673654,-0.0005197753906250025,-0.00156103515625001,0.9992987060546874
281,-0.004717557251907978,-0.008171755725190522,0.032171755725192736,-0.0005197753906250025,-0.00156103515625001,1.0019842529296874
282,-0.012351145038167533,0.00709541984732856,-0.01362977099236451,-0.0007639160156250025,0.00063623046874999,0.9946600341796874
283,0.025816793893130185,-0.0005381679389309946,0.009270992366414127,-0.010285400390625003,-0.00058447265625001,1.0027166748046874
284,0.010549618320611076,0.00709541984732856,0.0016374045801545722,0.004118896484374997,0.00161279296874999,1.0029608154296874
285,0.01818320610687063,-0.008171755725190522,0.009270992366414127,-0.0019846191406250025,0.00429833984374999,0.9978338623046874
286,0.010549618320611076,-0.008171755725190522,0.0016374045801545722,0.0009450683593749975,0.00478662109374999,1.0078436279296874
287,-0.004717557251907978,-0.008171755725190522,-0.01362977099236451,0.0019216308593749975,-0.00034033203125001,1.0054022216796874
288,-0.012351145038167533,0.014729007633588087,-0.005996183206104955,0.0002126464843749975,0.00014794921874999,1.0012518310546874
289,-0.012351145038167533,0.00709541984732856,0.009270992366414127,-0.0005197753906250025,0.00356591796874999,1.0017401123046874
290,0.01818320610687063,0.00709541984732856,0.0016374045801545722,0.0002126464843749975,0.00234521484374999,1.0046697998046874
291,0.01818320610687063,-0.015805343511450076,0.02453816793893321,-0.0012521972656250025,0.00942529296874999,1.0012518310546874
292,0.01818320610687063,-0.008171755725190522,0.016904580152673654,-0.0012521972656250025,-0.00229345703125001,0.9988104248046874
293,-0.004717557251907978,-0.0005381679389309946,0.032171755725192736,-0.0010080566406250025,0.00014794921874999,1.0014959716796874
294,-0.004717557251907978,-0.015805343511450076,-0.005996183206104955,0.0033864746093749975,0.00088037109374999,1.0044256591796874
295,0.002916030534351577,-0.031072519083969158,-0.005996183206104955,0.017546630859375,-0.00522314453125001,1.0054022216796874
296,0.01818320610687063,0.00709541984732856,-0.021263358778624036,-0.008820556640625003,0.00258935546874999,1.0058905029296874
297,-0.004717557251907978,0.022362595419847642,-0.005996183206104955,-3.1494140625002495e-05,-0.00546728515625001,1.0051580810546874
298,0.010549618320611076,-0.008171755725190522,0.02453816793893321,-0.0017404785156250025,-9.619140625001e-05,0.9956365966796874
299,0.002916030534351577,0.014729007633588087,0.016904580152673654,-0.0002756347656250025,-0.00131689453125001,0.9978338623046874
300,0.002916030534351577,-0.008171755725190522,0.0016374045801545722,0.0026540527343749975,-0.00204931640625001,1.0071112060546874
301,0.002916030534351577,-0.0005381679389309946,0.0016374045801545722,-0.0027170410156250025,-0.00107275390625001,0.9941717529296874
302,0.002916030534351577,-0.008171755725190522,-0.021263358778624036,0.016814208984375,-0.00229345703125001,0.9944158935546874
303,0.010549618320611076,0.00709541984732856,0.0016374045801545722,0.006072021484374997,0.00478662109374999,0.9939276123046874
304,-0.004717557251907978,-0.015805343511450076,0.009270992366414127,-0.011506103515625003,0.00161279296874999,1.0000311279296874
305,0.010549618320611076,-0.008171755725190522,0.0016374045801545722,-0.010041259765625003,-0.00644384765625001,0.9961248779296874
306,-0.012351145038167533,0.00709541984732856,0.016904580152673654,-0.0005197753906250025,-0.00424658203125001,1.0176092529296874
307,0.002916030534351577,-0.015805343511450076,0.02453816793893321,0.0009450683593749975,0.00332177734374999,1.0022283935546874
308,0.010549618320611076,-0.0005381679389309946,0.009270992366414127,0.006560302734374997,-0.00034033203125001,1.0029608154296874
309,0.010549618320611076,-0.008171755725190522,0.0016374045801545722,-0.0005197753906250025,-0.00449072265625001,1.0027166748046874
310,-0.004717557251907978,0.014729007633588087,0.02453816793893321,-0.0012521972656250025,-0.00131689453125001,1.0000311279296874
311,0.01818320610687063,0.022362595419847642,0.0016374045801545722,0.0009450683593749975,-0.00253759765625001,0.9997869873046874
312,0.002916030534351577,-0.023438931297709603,-0.01362977099236451,0.0011892089843749975,0.00942529296874999,0.9997869873046874
313,0.01818320610687063,-0.0005381679389309946,-0.005996183206104955,-0.0002756347656250025,-0.00034033203125001,0.9990545654296874
314,-0.012351145038167533,0.00709541984732856,0.0016374045801545722,0.0019216308593749975,-0.00204931640625001,0.9973455810546874
315,0.002916030534351577,-0.008171755725190522,0.02453816793893321,-0.0002756347656250025,-0.00522314453125001,1.0027166748046874
316,0.002916030534351577,-0.031072519083969158,-0.005996183206104955,0.0026540527343749975,-0.00253759765625001,1.0024725341796874
317,-0.004717557251907978,-0.008171755725190522,0.009270992366414127,-0.0012521972656250025,0.00210107421874999,0.9980780029296874
318,0.010549618320611076,0.014729007633588087,-0.021263358778624036,0.004851318359374997,-0.00034033203125001,1.0010076904296874
319,0.041083969465649295,-0.008171755725190522,-0.005996183206104955,-0.0024729003906250025,-0.00058447265625001,1.0046697998046874
320,0.01818320610687063,-0.015805343511450076,0.032171755725192736,-0.0014963378906250025,0.00332177734374999,1.0075994873046874
321,0.002916030534351577,0.00709541984732856,0.009270992366414127,-0.0005197753906250025,0.00673974609374999,0.9931951904296874
322,-0.004717557251907978,0.022362595419847642,-0.01362977099236451,-0.0005197753906250025,0.00088037109374999,0.9973455810546874
323,-0.004717557251907978,-0.0005381679389309946,0.009270992366414127,-0.0012521972656250025,-0.00253759765625001,0.9944158935546874
324,0.01818320610687063,0.014729007633588087,-0.005996183206104955,0.0016774902343749975,-0.00400244140625001,1.0041815185546874
325,-0.004717557251907978,-0.008171755725190522,-0.02889694656488359,0.0007009277343749975,-0.00131689453125001,1.0010076904296874
326,-0.004717557251907978,-0.015805343511450076,-0.021263358778624036,0.0002126464843749975,0.00381005859374999,1.0054022216796874
327,-0.019984732824427087,-0.0005381679389309946,0.016904580152673654,-0.0012521972656250025,-0.00131689453125001,1.0073553466796874
328,-0.027618320610686586,-0.015805343511450076,0.0016374045801545722,-0.008576416015625003,-0.00351416015625001,1.0041815185546874
329,0.025816793893130185,0.00709541984732856,-0.01362977099236451,-0.0005197753906250025,-0.00595556640625001,0.9990545654296874
330,0.010549618320611076,-0.008171755725190522,0.0016374045801545722,-0.0007639160156250025,0.00356591796874999,1.0061346435546874
331,0.010549618320611076,-0.0005381679389309946,0.0016374045801545722,-0.0027170410156250025,-0.00082861328125001,1.0014959716796874
332,0.002916030534351577,-0.0005381679389309946,0.009270992366414127,-0.011994384765625003,0.00136865234374999,1.0166326904296874
333,-0.004717557251907978,0.00709541984732856,0.0016374045801545722,-3.1494140625002495e-05,0.00234521484374999,1.0019842529296874
334,0.01818320610687063,0.00709541984732856,0.009270992366414127,-0.0017404785156250025,-0.00034033203125001,0.9966131591796874
335,0.002916030534351577,-0.008171755725190522,0.016904580152673654,-0.0012521972656250025,-0.00180517578125001,0.9988104248046874
336,0.010549618320611076,-0.023438931297709603,-0.005996183206104955,-0.005646728515625003,-0.00400244140625001,1.0000311279296874
337,-0.004717557251907978,-0.0005381679389309946,0.009270992366414127,0.0002126464843749975,-0.00107275390625001,1.0000311279296874
338,-0.004717557251907978,-0.031072519083969158,0.0016374045801545722,-0.004426025390625003,-0.00229345703125001,0.9971014404296874
339,0.010549618320611076,-0.023438931297709603,0.009270992366414127,0.0028981933593749975,0.00478662109374999,0.9988104248046874
340,0.010549618320611076,-0.0005381679389309946,0.009270992366414127,-0.0002756347656250025,-0.01865087890625001,1.0063787841796874
341,0.01818320610687063,-0.015805343511450076,-0.005996183206104955,-0.0017404785156250025,0.00063623046874999,0.9995428466796874
342,0.025816793893130185,-0.008171755725190522,0.0016374045801545722,0.0016774902343749975,-0.00302587890625001,0.9878240966796874
343,0.010549618320611076,0.014729007633588087,0.009270992366414127,0.018279052734375,0.00576318359374999,1.0051580810546874
344,0.025816793893130185,-0.008171755725190522,-0.005996183206104955,-0.005158447265625003,0.00112451171874999,0.9958807373046874
345,0.010549618320611076,-0.008171755725190522,0.016904580152673654,-0.003937744140625003,0.00283349609374999,0.9980780029296874
346,-0.004717557251907978,-0.008171755725190522,0.02453816793893321,-0.0017404785156250025,0.00039208984374999,1.0007635498046874
347,0.002916030534351577,0.00709541984732856,0.016904580152673654,0.018279052734375,-0.00302587890625001,1.0014959716796874
348,-0.012351145038167533,-0.015805343511450076,-0.005996183206104955,-0.0010080566406250025,-0.00229345703125001,1.0100408935546874
349,-0.004717557251907978,-0.023438931297709603,-0.01362977099236451,0.0002126464843749975,0.00698388671874999,0.9936834716796874
350,0.002916030534351577,0.014729007633588087,0.009270992366414127,-0.0012521972656250025,0.00356591796874999,1.0220037841796874
351,0.002916030534351577,0.00709541984732856,0.0016374045801545722,0.0002126464843749975,0.00258935546874999,1.0014959716796874
352,-0.004717557251907978,-0.008171755725190522,-0.01362977099236451,-0.0012521972656250025,-0.00278173828125001,1.0212713623046874
353,0.002916030534351577,-0.0005381679389309946,-0.01362977099236451,0.0002126464843749975,0.00356591796874999,1.0019842529296874
354,0.010549618320611076,-0.023438931297709603,0.009270992366414127,-0.0027170410156250025,0.00136865234374999,1.0073553466796874
355,0.010549618320611076,-0.0005381679389309946,0.0016374045801545722,-0.006379150390625003,0.00307763671874999,0.9953924560546874
356,0.002916030534351577,0.00709541984732856,-0.01362977099236451,-0.0029611816406250025,0.00161279296874999,1.0012518310546874
357,-0.004717557251907978,0.014729007633588087,0.0016374045801545722,0.0016774902343749975,0.00551904296874999,1.0075994873046874
358,0.010549618320611076,-0.015805343511450076,0.0016374045801545722,-0.004181884765625003,-0.00180517578125001,0.9978338623046874
359,-0.004717557251907978,-0.0005381679389309946,0.009270992366414127,-0.0034494628906250025,-0.00180517578125001,1.0005194091796874
360,0.025816793893130185,0.014729007633588087,0.009270992366414127,0.0033864746093749975,-0.00034033203125001,0.9985662841796874
361,0.002916030534351577,-0.0005381679389309946,-0.005996183206104955,-0.0034494628906250025,-0.00424658203125001,1.0036932373046874
362,-0.012351145038167533,0.014729007633588087,0.009270992366414127,-0.0017404785156250025,0.00088037109374999,1.0049139404296874
363,0.010549618320611076,-0.008171755725190522,0.009270992366414127,0.0002126464843749975,-0.00107275390625001,1.0044256591796874
364,0.002916030534351577,0.00709541984732856,0.009270992366414127,0.0021657714843749975,-0.00058447265625001,0.9997869873046874
365,-0.004717557251907978,-0.008171755725190522,-0.005996183206104955,-3.1494140625002495e-05,-0.00034033203125001,0.9997869873046874
366,-0.019984732824427087,-0.008171755725190522,0.0016374045801545722,-0.0002756347656250025,0.00307763671874999,0.9814764404296874
367,0.01818320610687063,-0.0005381679389309946,0.009270992366414127,0.018523193359375,-0.00058447265625001,0.9973455810546874
368,-0.004717557251907978,-0.008171755725190522,-0.005996183206104955,0.0028981933593749975,-0.00082861328125001,1.0029608154296874
369,0.01818320610687063,0.014729007633588087,0.02453816793893321,-0.011017822265625003,-0.00253759765625001,0.9968572998046874
370,0.002916030534351577,-0.008171755725190522,-0.005996183206104955,0.015349365234374997,-0.00131689453125001,1.0083319091796874
371,0.010549618320611076,0.00709541984732856,-0.005996183206104955,-0.0007639160156250025,0.00039208984374999,0.9968572998046874
372,0.002916030534351577,0.00709541984732856,0.009270992366414127,0.0007009277343749975,0.00088037109374999,0.9992987060546874
373,0.01818320610687063,0.014729007633588087,0.0016374045801545722,-0.0017404785156250025,0.00039208984374999,1.0012518310546874
374,-0.004717557251907978,-0.008171755725190522,0.009270992366414127,-0.0029611816406250025,0.00088037109374999,1.0061346435546874
375,0.002916030534351577,-0.008171755725190522,-0.005996183206104955,-0.0007639160156250025,-0.00595556640625001,1.0014959716796874
376,-0.004717557251907978,-0.008171755725190522,0.009270992366414127,-0.0002756347656250025,-0.00156103515625001,0.9973455810546874
377,0.002916030534351577,-0.015805343511450076,0.009270992366414127,0.0031423339843749975,-0.00302587890625001,1.0063787841796874
378,0.002916030534351577,-0.008171755725190522,-0.005996183206104955,0.0002126464843749975,0.00429833984374999,1.0044256591796874
379,-0.004717557251907978,0.00709541984732856,-0.005996183206104955,0.005583740234374997,0.00918115234374999,1.0000311279296874
380,0.01818320610687063,0.00709541984732856,0.016904580152673654,0.005339599609374997,0.00258935546874999,0.9983221435546874
381,-0.012351145038167533,0.00709541984732856,0.02453816793893321,-0.0010080566406250025,-0.00131689453125001,0.9978338623046874
382,0.002916030534351577,-0.0005381679389309946,-0.01362977099236451,-0.011017822265625003,0.00014794921874999,0.9953924560546874
383,0.01818320610687063,0.00709541984732856,-0.01362977099236451,-0.0002756347656250025,0.00381005859374999,1.0049139404296874
384,0.010549618320611076,-0.0005381679389309946,-0.021263358778624036,-0.0010080566406250025,0.00112451171874999,1.0027166748046874
385,0.002916030534351577,0.00709541984732856,0.0016374045801545722,-0.005402587890625003,-0.00497900390625001,0.9992987060546874
386,0.002916030534351577,0.00709541984732856,0.0016374045801545722,-0.0002756347656250025,0.00381005859374999,1.0024725341796874
387,0.01818320610687063,-0.0005381679389309946,0.009270992366414127,-3.1494140625002495e-05,0.00307763671874999,1.0224920654296874
388,0.002916030534351577,0.014729007633588087,0.009270992366414127,0.0007009277343749975,0.00429833984374999,0.9931951904296874
389,0.002916030534351577,0.00709541984732856,0.0016374045801545722,0.0002126464843749975,0.00210107421874999,1.0022283935546874
390,-0.004717557251907978,-0.0005381679389309946,-0.005996183206104955,0.0004567871093749975,0.00356591796874999,0.9919744873046874
391,0.01818320610687063,-0.008171755725190522,0.0016374045801545722,0.005339599609374997,-0.00204931640625001,1.0068670654296874
392,-0.012351145038167533,-0.015805343511450076,-0.005996183206104955,-0.0024729003906250025,0.00063623046874999,0.9992987060546874
393,0.01818320610687063,0.00709541984732856,0.016904580152673654,0.0031423339843749975,0.00014794921874999,0.9966131591796874
394,0.002916030534351577,0.00709541984732856,0.009270992366414127,-0.0005197753906250025,-0.00229345703125001,0.9997869873046874
395,0.002916030534351577,-0.008171755725190522,-0.021263358778624036,0.0028981933593749975,0.00796044921874999,0.9846502685546874
396,-0.004717557251907978,-0.0005381679389309946,-0.005996183206104955,0.018767333984375,0.00429833984374999,1.0029608154296874
397,0.025816793893130185,0.029996183206107183,0.0016374045801545722,0.015349365234374997,-0.00034033203125001,1.0005194091796874
398,0.002916030534351577,0.014729007633588087,0.009270992366414127,-0.0007639160156250025,0.00649560546874999,1.0024725341796874
399,-0.012351145038167533,-0.015805343511450076,0.009270992366414127,-0.0022287597656250025,0.00039208984374999,0.9953924560546874
400,0.002916030534351577,-0.0005381679389309946,0.009270992366414127,-0.008088134765625003,0.00307763671874999,1.0010076904296874
401,0.002916030534351577,0.022362595419847642,-0.021263358778624036,0.0011892089843749975,-0.00107275390625001,0.9934393310546874
402,0.002916030534351577,-0.0005381679389309946,-0.005996183206104955,-0.011750244140625003,0.00088037109374999,1.0019842529296874
403,0.002916030534351577,-0.015805343511450076,0.016904580152673654,-0.0029611816406250025,-0.00571142578125001,1.0041815185546874
404,-0.004717557251907978,-0.0005381679389309946,0.009270992366414127,0.0007009277343749975,-0.00253759765625001,1.0022283935546874
405,0.01818320610687063,-0.008171755725190522,0.016904580152673654,-0.0014963378906250025,-0.00180517578125001,1.0075994873046874
406,0.025816793893130185,-0.0005381679389309946,0.0016374045801545722,0.007292724609374997,-0.00766455078125001,1.0068670654296874
407,0.01818320610687063,-0.008171755725190522,-0.005996183206104955,-0.0002756347656250025,0.00503076171874999,0.9983221435546874
408,0.010549618320611076,0.022362595419847642,-0.005996183206104955,-0.0002756347656250025,-0.00156103515625001,0.9995428466796874
409,-0.004717557251907978,0.014729007633588087,0.016904580152673654,-0.004914306640625003,-0.00327001953125001,1.0039373779296874
410,0.010549618320611076,-0.015805343511450076,-0.005996183206104955,-0.0024729003906250025,0.00136865234374999,0.9953924560546874
411,0.002916030534351577,0.014729007633588087,0.02453816793893321,0.006316162109374997,-0.00302587890625001,0.9963690185546874
412,0.010549618320611076,-0.0005381679389309946,0.009270992366414127,0.018523193359375,0.00185693359374999,1.0058905029296874
413,0.010549618320611076,-0.0005381679389309946,-0.01362977099236451,0.0024099121093749975,-0.00497900390625001,0.9997869873046874
414,0.025816793893130185,0.022362595419847642,-0.005996183206104955,-0.0014963378906250025,-0.00204931640625001,1.0000311279296874
415,0.002916030534351577,-0.008171755725190522,0.016904580152673654,-0.0010080566406250025,0.00332177734374999,1.0005194091796874
416,0.002916030534351577,-0.0005381679389309946,-0.005996183206104955,0.0033864746093749975,-0.00229345703125001,0.9953924560546874
417,0.025816793893130185,0.022362595419847642,0.009270992366414127,-0.010041259765625003,-0.00229345703125001,0.9983221435546874
418,-0.012351145038167533,-0.015805343511450076,0.02453816793893321,-0.0029611816406250025,-0.00034033203125001,0.9966131591796874
419,0.010549618320611076,-0.015805343511450076,0.009270992366414127,-0.0027170410156250025,0.00869287109374999,0.9944158935546874
420,0.01818320610687063,-0.0005381679389309946,0.009270992366414127,0.0031423339843749975,-0.00473486328125001,1.0237127685546874
421,-0.004717557251907978,-0.008171755725190522,0.0016374045801545722,-0.006379150390625003,0.00161279296874999,1.0044256591796874
422,0.01818320610687063,-0.015805343511450076,0.032171755725192736,0.005095458984374997,-0.00180517578125001,1.0041815185546874
423,-0.012351145038167533,-0.0005381679389309946,0.009270992366414127,-0.0012521972656250025,-0.00034033203125001,1.0010076904296874
424,0.01818320610687063,-0.0005381679389309946,0.009270992366414127,0.0014333496093749975,-0.00253759765625001,0.9975897216796874
425,0.002916030534351577,0.029996183206107183,0.009270992366414127,0.0002126464843749975,-0.00327001953125001,0.9968572998046874
426,0.002916030534351577,-0.015805343511450076,0.009270992366414127,-0.0032053222656250025,-0.00156103515625001,1.0019842529296874
427,-0.012351145038167533,0.014729007633588087,0.0016374045801545722,0.005095458984374997,-0.00278173828125001,1.0078436279296874
428,-0.012351145038167533,-0.0005381679389309946,0.016904580152673654,-0.0024729003906250025,0.00478662109374999,0.9946600341796874
429,0.01818320610687063,-0.0005381679389309946,0.016904580152673654,0.015349365234374997,-0.00375830078125001,1.0017401123046874
430,0.002916030534351577,0.00709541984732856,0.0016374045801545722,-0.0024729003906250025,0.00454248046874999,0.9975897216796874
431,0.010549618320611076,0.014729007633588087,0.0016374045801545722,-0.007111572265625003,0.00136865234374999,0.9992987060546874
432,-0.012351145038167533,-0.0005381679389309946,0.009270992366414127,-0.0027170410156250025,0.00088037109374999,1.0000311279296874
433,0.002916030534351577,-0.0005381679389309946,0.02453816793893321,0.0016774902343749975,-0.00229345703125001,1.0010076904296874
434,-0.004717557251907978,0.00709541984732856,0.0016374045801545722,0.016325927734375,-0.00546728515625001,0.9975897216796874
435,-0.004717557251907978,0.00709541984732856,0.0016374045801545722,-0.0024729003906250025,-0.01938330078125001,0.9973455810546874
436,0.010549618320611076,-0.008171755725190522,-0.005996183206104955,-0.0024729003906250025,0.00210107421874999,0.9968572998046874
437,0.002916030534351577,-0.008171755725190522,0.0016374045801545722,0.0002126464843749975,-0.00742041015625001,1.0075994873046874
438,0.002916030534351577,0.00709541984732856,-0.005996183206104955,0.0024099121093749975,0.00014794921874999,0.9914862060546874
439,-0.004717557251907978,0.014729007633588087,0.0016374045801545722,0.0002126464843749975,0.00234521484374999,1.0032049560546874
440,-0.004717557251907978,-0.008171755725190522,0.0016374045801545722,0.009245849609374997,0.00039208984374999,0.9853826904296874
441,0.010549618320611076,-0.008171755725190522,-0.005996183206104955,0.0002126464843749975,0.00234521484374999,0.9968572998046874
442,0.002916030534351577,0.00709541984732856,-0.005996183206104955,-0.0005197753906250025,0.00234521484374999,0.9985662841796874
443,0.03345038167938974,0.00709541984732856,-0.005996183206104955,0.0033864746093749975,0.00332177734374999,0.9951483154296874
444,0.01818320610687063,-0.008171755725190522,0.0016374045801545722,-0.005158447265625003,-0.00082861328125001,0.9931951904296874
445,-0.012351145038167533,-0.008171755725190522,-0.005996183206104955,-0.0034494628906250025,-0.00351416015625001,0.9951483154296874
446,0.03345038167938974,-0.0005381679389309946,0.02453816793893321,0.0021657714843749975,-0.00302587890625001,1.0000311279296874
447,0.010549618320611076,-0.015805343511450076,0.0016374045801545722,0.0038747558593749975,-0.00302587890625001,0.9973455810546874
448,0.010549618320611076,-0.008171755725190522,0.0016374045801545722,-0.0029611816406250025,0.00942529296874999,1.0010076904296874
449,0.025816793893130185,-0.008171755725190522,0.016904580152673654,-0.011506103515625003,-9.619140625001e-05,1.0080877685546874
450,-0.012351145038167533,-0.0005381679389309946,0.0016374045801545722,-0.0019846191406250025,-0.00351416015625001,0.9949041748046874
451,0.01818320610687063,-0.008171755725190522,0.016904580152673654,-0.0027170410156250025,0.00429833984374999,1.0049139404296874
452,0.002916030534351577,0.00709541984732856,0.0016374045801545722,-0.0029611816406250025,0.00429833984374999,1.0044256591796874
453,0.010549618320611076,-0.0005381679389309946,-0.01362977099236451,0.0016774902343749975,0.00210107421874999,1.0061346435546874
454,-0.004717557251907978,-0.008171755725190522,-0.005996183206104955,-0.0036936035156250025,0.00307763671874999,1.0078436279296874
455,-0.012351145038167533,0.00709541984732856,0.0016374045801545722,-0.0029611816406250025,-0.00107275390625001,1.0041815185546874
456,-0.004717557251907978,-0.008171755725190522,-0.005996183206104955,-0.0019846191406250025,0.00405419921874999,1.0034490966796874
457,0.010549618320611076,0.00709541984732856,0.016904580152673654,-0.0007639160156250025,-0.00424658203125001,0.9980780029296874
458,0.025816793893130185,-0.008171755725190522,0.0016374045801545722,0.0002126464843749975,-0.00449072265625001,0.9897772216796874
459,0.002916030534351577,-0.0005381679389309946,-0.01362977099236451,0.0014333496093749975,-0.00107275390625001,0.9995428466796874
460,0.002916030534351577,0.029996183206107183,-0.005996183206104955,-0.005402587890625003,0.00405419921874999,1.0010076904296874
461,-0.004717557251907978,0.022362595419847642,0.009270992366414127,-0.004181884765625003,0.00161279296874999,1.0046697998046874
462,-0.012351145038167533,-0.0005381679389309946,0.0016374045801545722,0.019011474609375,0.00625146484374999,1.0066229248046874
463,-0.004717557251907978,0.014729007633588087,0.009270992366414127,0.0028981933593749975,0.00039208984374999,0.9997869873046874
464,-0.004717557251907978,0.022362595419847642,0.016904580152673654,-0.0022287597656250025,0.00210107421874999,1.0014959716796874
465,-0.004717557251907978,0.00709541984732856,-0.005996183206104955,0.0002126464843749975,0.00283349609374999,1.0044256591796874
466,0.010549618320611076,0.014729007633588087,-0.005996183206104955,-0.0002756347656250025,0.00185693359374999,1.0075994873046874
467,0.002916030534351577,0.00709541984732856,0.009270992366414127,0.0019216308593749975,-0.00351416015625001,1.0000311279296874
468,0.010549618320611076,0.00709541984732856,-0.01362977099236451,0.0021657714843749975,0.00307763671874999,0.9980780029296874
469,0.010549618320611076,-0.023438931297709603,0.02453816793893321,-3.1494140625002495e-05,-0.00058447265625001,0.9988104248046874
470,-0.019984732824427087,0.022362595419847642,0.009270992366414127,0.017790771484375,0.00234521484374999,1.0012518310546874
471,0.010549618320611076,0.00709541984732856,-0.005996183206104955,-0.003937744140625003,-0.00034033203125001,1.0083319091796874
472,-0.004717557251907978,-0.008171755725190522,-0.005996183206104955,0.0011892089843749975,0.00844873046874999,1.0080877685546874
473,0.002916030534351577,0.00709541984732856,0.016904580152673654,0.0004567871093749975,0.00210107421874999,1.0017401123046874
474,-0.019984732824427087,-0.015805343511450076,0.0016374045801545722,-0.0005197753906250025,-0.00278173828125001,1.0061346435546874
475,0.010549618320611076,-0.0005381679389309946,0.016904580152673654,-0.0010080566406250025,-0.00107275390625001,1.0012518310546874
476,-0.004717557251907978,0.00709541984732856,-0.005996183206104955,-0.008576416015625003,-0.00034033203125001,0.9929510498046874
477,0.025816793893130185,0.014729007633588087,0.0016374045801545722,-0.0005197753906250025,-0.00327001953125001,0.9961248779296874
478,0.010549618320611076,0.00709541984732856,0.009270992366414127,-3.1494140625002495e-05,0.00014794921874999,0.9980780029296874
479,0.01818320610687063,-0.015805343511450076,-0.005996183206104955,-0.0014963378906250025,-0.00107275390625001,0.9914862060546874
480,-0.004717557251907978,-0.008171755725190522,-0.005996183206104955,-0.007355712890625003,-0.00497900390625001,1.0017401123046874
481,0.010549618320611076,0.014729007633588087,0.016904580152673654,0.0002126464843749975,0.00063623046874999,1.0049139404296874
482,-0.012351145038167533,-0.0005381679389309946,0.016904580152673654,0.015349365234374997,-0.00082861328125001,1.0032049560546874
483,0.002916030534351577,-0.0005381679389309946,-0.005996183206104955,0.0007009277343749975,0.00478662109374999,0.9992987060546874
484,-0.019984732824427087,-0.0005381679389309946,-0.021263358778624036,0.0033864746093749975,0.00503076171874999,1.0019842529296874
485,0.01818320610687063,0.022362595419847642,0.0016374045801545722,-0.0007639160156250025,0.00649560546874999,0.9983221435546874
486,-0.004717557251907978,0.00709541984732856,0.0016374045801545722,-0.0002756347656250025,-0.00327001953125001,1.0068670654296874
487,-0.012351145038167533,0.014729007633588087,0.0016374045801545722,0.0002126464843749975,0.00405419921874999,0.9956365966796874
488,-0.004717557251907978,0.00709541984732856,-0.005996183206104955,-0.0017404785156250025,0.00503076171874999,0.9988104248046874
489,0.010549618320611076,-0.023438931297709603,-0.01362977099236451,-0.0024729003906250025,0.00356591796874999,1.0066229248046874
490,-0.004717557251907978,0.00709541984732856,0.0016374045801545722,-0.0007639160156250025,0.00820458984374999,1.0063787841796874
491,0.010549618320611076,-0.008171755725190522,0.0016374045801545722,-0.0034494628906250025,-0.00204931640625001,0.9980780029296874
492,0.01818320610687063,0.022362595419847642,0.016904580152673654,-0.0012521972656250025,0.00551904296874999,0.9995428466796874
493,0.025816793893130185,-0.0005381679389309946,0.0016374045801545722,-0.0002756347656250025,-0.00180517578125001,0.9953924560546874
494,-0.019984732824427087,0.014729007633588087,-0.005996183206104955,-0.0017404785156250025,-0.00180517578125001,1.0000311279296874
495,0.002916030534351577,-0.0005381679389309946,-0.01362977099236451,-0.0036936035156250025,-0.00107275390625001,0.9939276123046874
496,-0.004717557251907978,-0.008171755725190522,0.0016374045801545722,0.014128662109374997,0.00454248046874999,0.9990545654296874
497,-0.012351145038167533,-0.0005381679389309946,-0.005996183206104955,-0.0010080566406250025,-0.00058447265625001,0.9983221435546874
498,0.002916030534351577,-0.0005381679389309946,0.016904580152673654,-0.0034494628906250025,0.00112451171874999,0.9944158935546874
499,0.010549618320611076,0.00709541984732856,0.0016374045801545722,0.0038747558593749975,-0.00082861328125001,1.0071112060546874
500,-0.012351145038167533,-0.015805343511450076,0.0016374045801545722,0.0007009277343749975,-0.00204931640625001,0.9946600341796874
501,-0.004717557251907978,0.014729007633588087,-0.005996183206104955,-0.005158447265625003,0.00283349609374999,0.9944158935546874
502,0.01818320610687063,-0.0005381679389309946,-0.005996183206104955,-0.0027170410156250025,0.00234521484374999,1.0068670654296874
503,0.010549618320611076,-0.0005381679389309946,0.0016374045801545722,-0.011994384765625003,-0.00229345703125001,0.9995428466796874
504,-0.004717557251907978,-0.008171755725190522,-0.005996183206104955,0.0004567871093749975,0.00869287109374999,1.0068670654296874
505,-0.004717557251907978,0.00709541984732856,0.0016374045801545722,0.018767333984375,-0.00156103515625001,1.0002752685546874
506,0.002916030534351577,-0.015805343511450076,0.009270992366414127,-0.0029611816406250025,-0.00253759765625001,1.0000311279296874
507,-0.004717557251907978,-0.015805343511450076,0.009270992366414127,0.004607177734374997,0.00356591796874999,0.9995428466796874
508,0.002916030534351577,-0.008171755725190522,-0.02889694656488359,0.0004567871093749975,0.00039208984374999,0.9944158935546874
509,0.010549618320611076,0.022362595419847642,0.009270992366414127,-3.1494140625002495e-05,0.00503076171874999,1.0034490966796874
510,0.002916030534351577,-0.008171755725190522,0.009270992366414127,-0.0036936035156250025,-0.00375830078125001,1.0046697998046874
511,-0.027618320610686586,-0.015805343511450076,-0.01362977099236451,-0.0027170410156250025,0.00210107421874999,0.9966131591796874
512,-0.012351145038167533,0.014729007633588087,-0.005996183206104955,0.0002126464843749975,-0.00204931640625001,1.0027166748046874
513,-0.019984732824427087,-0.031072519083969158,0.0016374045801545722,0.0033864746093749975,0.00258935546874999,1.0017401123046874
514,0.010549618320611076,0.022362595419847642,0.02453816793893321,0.0031423339843749975,0.00600732421874999,1.0029608154296874
515,0.002916030534351577,0.014729007633588087,-0.01362977099236451,-0.007599853515625003,0.00478662109374999,0.9975897216796874
516,0.002916030534351577,-0.015805343511450076,-0.005996183206104955,-0.0005197753906250025,0.00088037109374999,1.0029608154296874
517,-0.012351145038167533,0.00709541984732856,0.02453816793893321,0.0002126464843749975,-0.00497900390625001,1.0000311279296874
518,0.010549618320611076,-0.0005381679389309946,-0.005996183206104955,-0.0022287597656250025,0.00381005859374999,0.9956365966796874
519,-0.004717557251907978,-0.008171755725190522,0.0016374045801545722,-0.0024729003906250025,0.00088037109374999,1.0078436279296874
520,-0.004717557251907978,0.00709541984732856,-0.01362977099236451,-0.0027170410156250025,-0.00107275390625001,1.0017401123046874
521,0.010549618320611076,0.022362595419847642,0.0016374045801545722,-0.004426025390625003,-0.00082861328125001,0.9941717529296874
522,0.010549618320611076,0.00709541984732856,0.0016374045801545722,-0.0017404785156250025,0.00576318359374999,0.9939276123046874
523,-0.004717557251907978,0.00709541984732856,0.0016374045801545722,0.0002126464843749975,-0.00327001953125001,1.0022283935546874
524,0.010549618320611076,-0.008171755725190522,-0.021263358778624036,-0.0019846191406250025,0.00088037109374999,1.0100408935546874
525,0.002916030534351577,-0.008171755725190522,-0.02889694656488359,-0.0005197753906250025,0.00356591796874999,1.0039373779296874
526,0.002916030534351577,-0.0005381679389309946,-0.021263358778624036,-0.0007639160156250025,-9.619140625001e-05,0.9980780029296874
527,0.01818320610687063,0.03762977099236672,0.009270992366414127,-3.1494140625002495e-05,0.00161279296874999,0.9997869873046874
528,0.010549618320611076,0.029996183206107183,0.016904580152673654,-0.0012521972656250025,0.00527490234374999,1.0080877685546874
529,-0.004717557251907978,0.052896946564885805,0.009270992366414127,0.015105224609374997,0.00063623046874999,1.0281072998046874
530,-0.027618320610686586,0.00709541984732856,0.009270992366414127,-0.0014963378906250025,-9.619140625001e-05,1.0063787841796874
531,-0.027618320610686586,-0.03870610687022871,0.0016374045801545722,-0.007355712890625003,0.00332177734374999,0.9809881591796874
532,0.025816793893130185,0.029996183206107183,0.009270992366414127,-0.004181884765625003,-0.00375830078125001,0.9773260498046874
533,0.041083969465649295,0.022362595419847642,0.009270992366414127,-0.0034494628906250025,0.00283349609374999,0.9956365966796874
534,-0.004717557251907978,0.029996183206107183,-0.005996183206104955,-3.1494140625002495e-05,0.00112451171874999,1.0017401123046874
535,0.048717557251908794,0.014729007633588087,0.0016374045801545722,0.014128662109374997,-0.00107275390625001,1.0007635498046874
536,0.010549618320611076,0.029996183206107183,0.016904580152673654,-0.011750244140625003,0.00356591796874999,1.0112615966796874
537,0.025816793893130185,0.014729007633588087,-0.005996183206104955,-0.006135009765625003,-0.00424658203125001,0.9897772216796874
538,0.002916030534351577,0.014729007633588087,0.009270992366414127,0.0021657714843749975,0.00088037109374999,0.9985662841796874
539,-0.004717557251907978,0.022362595419847642,0.0016374045801545722,0.004363037109374997,0.00088037109374999,0.9988104248046874
540,0.002916030534351577,0.029996183206107183,0.009270992366414127,0.017790771484375,0.00210107421874999,0.9829412841796874
541,-0.012351145038167533,0.03762977099236672,0.0016374045801545722,0.0021657714843749975,0.00014794921874999,0.9985662841796874
542,0.002916030534351577,-0.031072519083969158,-0.005996183206104955,0.0009450683593749975,0.00088037109374999,0.9949041748046874
543,-0.03525190839694614,0.029996183206107183,0.0016374045801545722,0.0028981933593749975,0.00039208984374999,1.0146795654296874
544,0.002916030534351577,-0.023438931297709603,0.0016374045801545722,-0.0002756347656250025,0.00381005859374999,1.0215155029296874
545,-0.16502290076335838,-0.0005381679389309946,-0.021263358778624036,-0.0019846191406250025,0.00673974609374999,1.0019842529296874
546,0.041083969465649295,-0.0005381679389309946,0.016904580152673654,0.005583740234374997,0.00112451171874999,0.9746405029296874
547,-0.0657862595419843,-0.023438931297709603,0.009270992366414127,-0.0034494628906250025,-0.00302587890625001,1.0129705810546874
548,-0.05815267175572475,0.00709541984732856,-0.005996183206104955,0.0009450683593749975,0.00405419921874999,1.0075994873046874
549,-0.0963206106870225,-0.03870610687022871,-0.021263358778624036,0.0009450683593749975,-0.00400244140625001,1.0034490966796874
550,-0.03525190839694614,-0.023438931297709603,-0.021263358778624036,-0.0019846191406250025,0.00258935546874999,0.9961248779296874
551,-0.0657862595419843,-0.0005381679389309946,-0.005996183206104955,-0.0002756347656250025,0.00063623046874999,1.0110174560546874
552,-0.042885496183205696,-0.015805343511450076,0.016904580152673654,-0.010529541015625003,0.00356591796874999,1.0051580810546874
553,-0.042885496183205696,0.00709541984732856,0.0016374045801545722,0.007536865234374997,0.00356591796874999,1.0195623779296874
554,-0.042885496183205696,0.00709541984732856,-0.005996183206104955,-0.004670166015625003,0.00088037109374999,0.9995428466796874
555,-0.0657862595419843,-0.031072519083969158,-0.01362977099236451,0.0002126464843749975,-0.00180517578125001,0.9958807373046874
556,-0.05051908396946525,0.029996183206107183,0.009270992366414127,-0.0017404785156250025,0.00161279296874999,1.0176092529296874
557,-0.08105343511450341,-0.0005381679389309946,0.009270992366414127,0.016081787109375,-0.00449072265625001,0.9992987060546874
558,-0.07341984732824386,0.00709541984732856,0.016904580152673654,-0.0019846191406250025,-0.00156103515625001,0.9968572998046874
559,-0.05815267175572475,0.00709541984732856,0.0016374045801545722,-0.011994384765625003,-0.00497900390625001,0.9958807373046874
560,-0.05051908396946525,0.014729007633588087,0.009270992366414127,0.0004567871093749975,-0.00375830078125001,1.0046697998046874
561,-0.027618320610686586,0.00709541984732856,0.0016374045801545722,-0.005402587890625003,0.00796044921874999,0.9956365966796874
562,-0.027618320610686586,-0.031072519083969158,-0.01362977099236451,-0.0002756347656250025,0.00429833984374999,1.0066229248046874
563,-0.012351145038167533,-0.015805343511450076,0.009270992366414127,0.0002126464843749975,-0.00229345703125001,0.9902655029296874
564,-0.03525190839694614,-0.023438931297709603,0.016904580152673654,-0.0010080566406250025,-0.00424658203125001,1.0066229248046874
565,-0.019984732824427087,-0.008171755725190522,0.016904580152673654,-0.010285400390625003,-0.00204931640625001,0.9988104248046874
566,-0.012351145038167533,-0.008171755725190522,0.02453816793893321,-0.011994384765625003,0.00161279296874999,0.9936834716796874
567,-0.027618320610686586,0.029996183206107183,0.0016374045801545722,0.0004567871093749975,-0.00082861328125001,0.9973455810546874
568,-0.027618320610686586,-0.015805343511450076,0.009270992366414127,0.015349365234374997,0.00185693359374999,1.0063787841796874
569,-0.019984732824427087,-0.015805343511450076,-0.021263358778624036,0.0038747558593749975,-0.00278173828125001,0.9980780029296874
570,-0.004717557251907978,0.00709541984732856,0.016904580152673654,0.0007009277343749975,-0.00400244140625001,0.9958807373046874
571,-0.012351145038167533,0.014729007633588087,-0.021263358778624036,-0.0019846191406250025,-0.00204931640625001,1.0041815185546874
572,-0.004717557251907978,0.00709541984732856,0.0016374045801545722,-0.0022287597656250025,-0.00449072265625001,0.9919744873046874
573,0.002916030534351577,-0.0005381679389309946,0.0016374045801545722,0.0004567871093749975,-0.00400244140625001,1.0029608154296874
574,-0.004717557251907978,-0.031072519083969158,0.0016374045801545722,-0.0036936035156250025,-0.00302587890625001,1.0032049560546874
575,-0.004717557251907978,-0.0005381679389309946,0.016904580152673654,0.0033864746093749975,-0.01962744140625001,0.9968572998046874
576,0.002916030534351577,-0.023438931297709603,0.009270992366414127,-0.011506103515625003,0.00478662109374999,1.0010076904296874
577,0.025816793893130185,-0.0005381679389309946,0.02453816793893321,-0.0002756347656250025,-0.00449072265625001,1.0002752685546874
578,-0.004717557251907978,-0.0005381679389309946,-0.01362977099236451,0.0021657714843749975,-0.00082861328125001,1.0005194091796874
579,-0.012351145038167533,-0.008171755725190522,0.009270992366414127,-0.011750244140625003,-0.00034033203125001,0.9980780029296874
580,0.025816793893130185,0.00709541984732856,-0.021263358778624036,-0.0014963378906250025,0.00136865234374999,1.0007635498046874
581,0.002916030534351577,0.014729007633588087,0.02453816793893321,0.005339599609374997,0.00088037109374999,0.9985662841796874
582,0.010549618320611076,-0.015805343511450076,0.009270992366414127,0.0031423339843749975,0.00210107421874999,1.0012518310546874
583,-0.004717557251907978,-0.015805343511450076,0.02453816793893321,-0.0019846191406250025,-0.00253759765625001,0.9990545654296874
584,-0.004717557251907978,-0.03870610687022871,0.009270992366414127,-0.0036936035156250025,0.00405419921874999,1.0029608154296874
585,-0.019984732824427087,-0.015805343511450076,-0.005996183206104955,0.016570068359375,-0.00522314453125001,1.0041815185546874
586,-0.004717557251907978,-0.0005381679389309946,0.016904580152673654,0.014128662109374997,0.00112451171874999,1.0058905029296874
587,0.010549618320611076,-0.031072519083969158,0.009270992366414127,0.006804443359374997,-0.00131689453125001,0.9975897216796874
588,-0.004717557251907978,-0.015805343511450076,0.0016374045801545722,-0.003937744140625003,-0.00204931640625001,0.9988104248046874
589,0.01818320610687063,-0.0005381679389309946,0.009270992366414127,-0.0027170410156250025,-0.00400244140625001,1.0010076904296874
590,0.002916030534351577,-0.015805343511450076,-0.021263358778624036,-0.004914306640625003,-0.00522314453125001,0.9934393310546874
591,-0.027618320610686586,0.014729007633588087,0.0016374045801545722,-0.0005197753906250025,-0.00156103515625001,1.0012518310546874
592,-0.012351145038167533,-0.031072519083969158,0.009270992366414127,0.0007009277343749975,-0.00449072265625001,1.0000311279296874
593,0.002916030534351577,-0.023438931297709603,0.0016374045801545722,0.0009450683593749975,0.00014794921874999,0.9975897216796874
594,-0.012351145038167533,-0.031072519083969158,0.009270992366414127,0.0033864746093749975,0.00283349609374999,1.0054022216796874
595,-0.004717557251907978,-0.0005381679389309946,0.016904580152673654,-0.010041259765625003,-0.00595556640625001,0.9953924560546874
596,0.002916030534351577,-0.015805343511450076,0.009270992366414127,0.0007009277343749975,-0.00546728515625001,0.9931951904296874
597,0.002916030534351577,-0.06160687022900732,0.0016374045801545722,0.0026540527343749975,-0.00131689453125001,0.9968572998046874
598,0.002916030534351577,-0.053973282442747794,0.009270992366414127,-0.0029611816406250025,-0.00424658203125001,0.9858709716796874
599,-0.019984732824427087,-0.008171755725190522,-0.01362977099236451,0.005095458984374997,-0.00204931640625001,0.9861151123046874
600,-0.019984732824427087,-0.0005381679389309946,0.0016374045801545722,0.0009450683593749975,0.00088037109374999,1.0012518310546874
601,-0.03525190839694614,0.00709541984732856,-0.01362977099236451,0.0002126464843749975,-0.00351416015625001,1.0144354248046874
602,0.002916030534351577,0.00709541984732856,-0.02889694656488359,-0.004914306640625003,-0.00229345703125001,1.0188299560546874
603,-0.012351145038167533,-0.008171755725190522,0.0016374045801545722,-0.0005197753906250025,-0.00327001953125001,0.9980780029296874
604,0.010549618320611076,-0.015805343511450076,0.009270992366414127,-0.0010080566406250025,-0.00253759765625001,1.0137030029296874
605,-0.019984732824427087,0.03762977099236672,0.0016374045801545722,0.015593505859374997,-0.00278173828125001,1.0183416748046874
606,-0.012351145038167533,-0.008171755725190522,-0.01362977099236451,-0.005158447265625003,-0.00253759765625001,1.0107733154296874
607,0.01818320610687063,-0.008171755725190522,0.0016374045801545722,-0.0019846191406250025,-0.00595556640625001,0.9802557373046874
608,-0.027618320610686586,-0.015805343511450076,0.009270992366414127,0.0002126464843749975,-0.00058447265625001,1.0051580810546874
609,-0.019984732824427087,-0.023438931297709603,-0.005996183206104955,-0.0029611816406250025,0.00258935546874999,1.0078436279296874
610,-0.019984732824427087,-0.0005381679389309946,-0.005996183206104955,-0.0005197753906250025,-0.00400244140625001,0.9944158935546874
611,-0.019984732824427087,0.022362595419847642,-0.005996183206104955,-0.003937744140625003,-0.00644384765625001,0.9658514404296874
612,-0.012351145038167533,0.029996183206107183,0.009270992366414127,0.017058349609375,0.00600732421874999,0.9885565185546874
613,-0.012351145038167533,0.022362595419847642,0.009270992366414127,-0.0027170410156250025,-0.00156103515625001,0.9844061279296874
614,0.002916030534351577,0.014729007633588087,0.009270992366414127,-0.0002756347656250025,-0.00131689453125001,0.9941717529296874
615,-0.012351145038167533,0.00709541984732856,0.009270992366414127,0.0021657714843749975,-0.00327001953125001,1.0027166748046874
616,0.010549618320611076,0.022362595419847642,0.016904580152673654,-0.0010080566406250025,-0.00497900390625001,0.9966131591796874
617,-0.03525190839694614,0.029996183206107183,0.02453816793893321,-0.009552978515625003,-0.00424658203125001,1.0173651123046874
618,0.002916030534351577,0.022362595419847642,0.016904580152673654,0.0007009277343749975,-0.00107275390625001,0.9895330810546874
619,-0.004717557251907978,0.022362595419847642,0.0016374045801545722,-0.004914306640625003,-0.00571142578125001,0.9809881591796874
620,0.01818320610687063,0.03762977099236672,0.0016374045801545722,-0.010773681640625003,-0.00107275390625001,1.0049139404296874
621,0.01818320610687063,0.022362595419847642,-0.005996183206104955,-0.011750244140625003,-0.00327001953125001,0.9973455810546874
622,0.01818320610687063,0.022362595419847642,-0.005996183206104955,0.018523193359375,-0.00180517578125001,0.9958807373046874
623,0.03345038167938974,-0.023438931297709603,-0.02889694656488359,0.004851318359374997,0.00625146484374999,1.0071112060546874
624,0.03345038167938974,0.00709541984732856,-0.005996183206104955,0.017790771484375,-0.00351416015625001,0.9902655029296874
625,0.048717557251908794,0.00709541984732856,0.0016374045801545722,0.0021657714843749975,-0.00058447265625001,0.9995428466796874
626,0.002916030534351577,-0.0005381679389309946,-0.01362977099236451,0.0024099121093749975,-0.00107275390625001,1.0173651123046874
627,0.010549618320611076,0.00709541984732856,-0.01362977099236451,-0.0024729003906250025,0.00283349609374999,0.9995428466796874
628,-0.004717557251907978,0.00709541984732856,0.0016374045801545722,-0.0002756347656250025,-0.00229345703125001,0.9975897216796874
629,-0.012351145038167533,0.00709541984732856,-0.01362977099236451,0.017058349609375,-0.00742041015625001,1.0054022216796874
630,-0.027618320610686586,0.029996183206107183,0.02453816793893321,0.0004567871093749975,0.00039208984374999,1.0024725341796874
631,-0.012351145038167533,0.014729007633588087,0.016904580152673654,0.0021657714843749975,-0.00400244140625001,1.0039373779296874
632,-0.042885496183205696,0.029996183206107183,-0.021263358778624036,0.004607177734374997,-0.00400244140625001,1.0036932373046874
633,-0.042885496183205696,0.022362595419847642,-0.005996183206104955,0.0036306152343749975,0.00014794921874999,1.0041815185546874
634,-0.027618320610686586,-0.0005381679389309946,0.009270992366414127,-0.007111572265625003,0.00014794921874999,1.0063787841796874
635,-0.027618320610686586,0.00709541984732856,0.016904580152673654,-0.0034494628906250025,0.00942529296874999,1.0122381591796874
636,-0.027618320610686586,0.014729007633588087,0.0016374045801545722,-0.0022287597656250025,-0.00302587890625001,0.9958807373046874
637,0.002916030534351577,-0.023438931297709603,0.0016374045801545722,0.0011892089843749975,-0.00351416015625001,1.0039373779296874
638,-0.012351145038167533,0.00709541984732856,0.009270992366414127,-0.0014963378906250025,0.00918115234374999,0.9988104248046874
639,0.010549618320611076,0.014729007633588087,-0.005996183206104955,-0.0034494628906250025,-0.00058447265625001,1.0010076904296874
640,0.010549618320611076,-0.0005381679389309946,0.009270992366414127,-0.010529541015625003,0.00014794921874999,0.9985662841796874
641,0.010549618320611076,0.022362595419847642,-0.01362977099236451,-0.0010080566406250025,-0.00156103515625001,1.0000311279296874
642,0.025816793893130185,-0.0005381679389309946,0.009270992366414127,0.004118896484374997,-0.01352392578125001,0.9995428466796874
643,0.01818320610687063,0.00709541984732856,0.0016374045801545722,0.0002126464843749975,-0.00278173828125001,0.9990545654296874
644,0.002916030534351577,-0.0005381679389309946,0.02453816793893321,0.005095458984374997,0.00918115234374999,0.9990545654296874
645,0.010549618320611076,-0.008171755725190522,0.02453816793893321,0.0024099121093749975,0.00136865234374999,0.9853826904296874
646,0.002916030534351577,0.014729007633588087,-0.01362977099236451,-0.0014963378906250025,-0.00937353515625001,0.9978338623046874
647,0.025816793893130185,-0.0005381679389309946,0.016904580152673654,-0.0024729003906250025,0.00063623046874999,0.9971014404296874
648,0.010549618320611076,-0.0005381679389309946,0.0016374045801545722,-0.0014963378906250025,-0.00742041015625001,0.9975897216796874
649,0.010549618320611076,-0.0005381679389309946,0.0016374045801545722,0.0021657714843749975,-0.00156103515625001,1.0056463623046874
650,0.01818320610687063,0.014729007633588087,0.009270992366414127,-0.0017404785156250025,0.00112451171874999,0.9992987060546874
651,0.025816793893130185,0.00709541984732856,0.009270992366414127,0.0009450683593749975,-0.01498876953125001,1.0010076904296874
652,0.041083969465649295,-0.0005381679389309946,0.0016374045801545722,-0.0014963378906250025,-0.00034033203125001,0.9946600341796874
653,0.01818320610687063,0.014729007633588087,-0.005996183206104955,0.0009450683593749975,-0.00424658203125001,1.0027166748046874
654,0.041083969465649295,-0.0005381679389309946,0.0016374045801545722,0.0009450683593749975,-0.01596533203125001,0.9988104248046874
655,0.041083969465649295,-0.008171755725190522,0.009270992366414127,-0.0012521972656250025,-0.00131689453125001,0.9941717529296874
656,0.010549618320611076,-0.008171755725190522,0.009270992366414127,0.0016774902343749975,0.00918115234374999,0.9983221435546874
657,0.002916030534351577,0.00709541984732856,0.0016374045801545722,-0.005158447265625003,-0.02060400390625001,1.0049139404296874
658,0.025816793893130185,-0.023438931297709603,0.009270992366414127,-0.0032053222656250025,-0.00351416015625001,0.9997869873046874
659,0.025816793893130185,-0.0005381679389309946,0.0016374045801545722,0.0038747558593749975,0.00258935546874999,1.0036932373046874
660,-0.004717557251907978,-0.015805343511450076,0.009270992366414127,-0.0007639160156250025,-0.00375830078125001,1.0056463623046874
661,0.002916030534351577,-0.015805343511450076,0.0016374045801545722,-0.0005197753906250025,0.00039208984374999,1.0041815185546874
662,-0.012351145038167533,-0.0005381679389309946,-0.01362977099236451,-0.0014963378906250025,-0.00497900390625001,0.9966131591796874
663,0.010549618320611076,-0.023438931297709603,0.009270992366414127,0.0004567871093749975,0.00088037109374999,0.9951483154296874
664,0.002916030534351577,-0.0005381679389309946,0.009270992366414127,0.0028981933593749975,0.00234521484374999,0.9934393310546874
665,-0.004717557251907978,0.00709541984732856,-0.01362977099236451,-0.005402587890625003,0.00283349609374999,0.9956365966796874
666,-0.019984732824427087,0.029996183206107183,0.0016374045801545722,-0.0036936035156250025,-0.02158056640625001,1.0007635498046874
667,-0.027618320610686586,0.00709541984732856,-0.005996183206104955,0.0024099121093749975,-0.00156103515625001,0.9968572998046874
668,-0.03525190839694614,0.014729007633588087,-0.036530534351143146,0.015593505859374997,-0.00839697265625001,1.0029608154296874
669,-0.042885496183205696,0.022362595419847642,0.0016374045801545722,-0.0024729003906250025,0.00112451171874999,1.0137030029296874
670,-0.012351145038167533,0.060530534351145346,0.016904580152673654,0.0021657714843749975,0.00429833984374999,1.0007635498046874
671,-0.03525190839694614,0.022362595419847642,-0.005996183206104955,-0.0007639160156250025,0.00039208984374999,0.9831854248046874
672,-0.03525190839694614,0.03762977099236672,-0.01362977099236451,0.005095458984374997,-0.00058447265625001,1.0002752685546874
673,-0.027618320610686586,0.052896946564885805,-0.021263358778624036,0.005095458984374997,0.00234521484374999,1.0036932373046874
674,-0.03525190839694614,0.060530534351145346,-0.005996183206104955,0.0019216308593749975,0.00014794921874999,0.9963690185546874
675,-0.027618320610686586,0.06816412213740489,-0.005996183206104955,-0.0005197753906250025,0.00942529296874999,1.0205389404296874
676,-0.05815267175572475,0.07579770992366443,-0.005996183206104955,0.0002126464843749975,-0.00229345703125001,0.9946600341796874
677,-0.042885496183205696,0.06816412213740489,-0.01362977099236451,-0.003937744140625003,0.00161279296874999,1.0039373779296874
678,-0.03525190839694614,0.052896946564885805,0.02453816793893321,0.0011892089843749975,-0.00375830078125001,1.0000311279296874
679,-0.05815267175572475,0.052896946564885805,-0.01362977099236451,-0.0010080566406250025,-0.00253759765625001,0.9936834716796874
680,-0.042885496183205696,0.029996183206107183,-0.005996183206104955,-0.009552978515625003,0.00869287109374999,1.0014959716796874
681,-0.07341984732824386,0.029996183206107183,0.016904580152673654,-0.0022287597656250025,-0.00229345703125001,0.9961248779296874
682,-0.08105343511450341,0.12159923664122169,0.016904580152673654,-0.0034494628906250025,0.00088037109374999,1.0161444091796874
683,-0.08868702290076297,0.08343129770992397,0.0016374045801545722,0.0002126464843749975,0.00063623046874999,1.0017401123046874
684,-0.08868702290076297,0.1445000000000003,0.03980534351145226,-0.014435791015625003,-0.01816259765625001,0.9878240966796874
685,-0.05815267175572475,0.09106488549618352,0.1390419847328263,-0.0022287597656250025,-0.00034033203125001,0.9966131591796874
686,-0.1726564885496179,0.07579770992366443,0.345148854961834,0.032927490234374995,-0.01889501953125001,0.9973455810546874
687,-0.15738931297709882,0.03762977099236672,0.2993473282442767,0.021452880859375,-0.02646337890625001,0.9949041748046874
688,-0.11158778625954158,0.11396564885496213,0.21537786259542174,-0.018342041015625,0.01015771484374999,0.9963690185546874
689,-0.08105343511450341,0.1063320610687026,0.1314083969465668,-0.011994384765625003,0.02187646484374999,0.9995428466796874
690,-0.07341984732824386,0.052896946564885805,0.016904580152673654,-0.011261962890625003,-0.01035009765625001,0.9907537841796874
691,-0.08868702290076297,-1.8020648854961827,-0.04416412213740267,-0.042511962890625005,0.03774560546874999,0.9768377685546874
692,-0.12685496183206066,0.060530534351145346,-0.059431297709921754,0.026823974609375,-0.02719580078125001,1.0019842529296874
693,-0.10395419847328202,0.07579770992366443,-0.18920229007633396,-0.010773681640625003,-0.01620947265625001,1.0022283935546874
694,-0.18792366412213699,0.014729007633588087,-0.3418740458015248,-0.026642822265625,-0.00082861328125001,1.0163885498046874
695,-0.14212213740457974,0.029996183206107183,-0.2808053435114485,0.009489990234374997,-0.00449072265625001,0.9802557373046874
696,-0.05051908396946525,0.03762977099236672,-0.3037061068702271,0.004851318359374997,-0.00693212890625001,0.9790350341796874
697,-0.18029007633587746,0.045263358778626264,-0.17393511450381488,-0.014924072265625003,0.02675927734374999,1.0346990966796874
698,-0.15738931297709882,0.022362595419847642,-0.3571412213740439,0.020720458984375,-0.01279150390625001,0.9971014404296874
699,-0.21082442748091562,0.00709541984732856,-0.8609580152671736,-0.035187744140625005,-0.04941259765625001,1.0244451904296874
700,-0.21845801526717518,0.00709541984732856,-0.9296603053435095,-0.0010080566406250025,-0.01181494140625001,1.0139471435546874
701,-0.24899236641221334,-0.0768740458015264,-1.005996183206105,0.024382568359375,-0.00131689453125001,1.0168768310546874
702,-0.3024274809160301,-0.09214122137404548,-1.1052328244274792,-0.0019846191406250025,0.00771630859374999,1.0100408935546874
703,-0.27189312977099195,-0.1608435114503814,-0.9449274809160286,0.007781005859374997,0.01284326171874999,1.0000311279296874
704,-0.23372519083969423,-0.11504198473282412,-0.7540877862595401,0.029509521484375,0.02309716796874999,1.0051580810546874
705,-0.2260916030534347,-0.15320992366412184,-0.6319503816793874,0.016325927734375,-0.00278173828125001,1.0159002685546874
706,-0.28716030534351106,-0.13794274809160273,-0.654851145038166,0.018767333984375,-0.01035009765625001,1.0119940185546874
707,-0.3176946564885492,-0.0768740458015264,-0.7082862595419828,-0.013215087890625003,-0.01669775390625001,1.0227362060546874
708,-0.4321984732824423,-0.15320992366412184,-0.8456908396946545,0.015349365234374997,-0.01181494140625001,1.0014959716796874
709,-0.36349618320610644,-0.09977480916030501,-0.7235534351145019,-0.021027587890625,-0.02060400390625001,0.9841619873046874
710,1.6059694656488555,0.03762977099236672,-0.5403473282442729,-0.0014963378906250025,0.00747216796874999,0.9885565185546874
711,-0.3024274809160301,0.052896946564885805,-0.36477480916030347,0.009001708984374997,0.00625146484374999,1.0000311279296874
712,-0.3024274809160301,0.06816412213740489,-0.3953091603053416,0.019743896484375,-0.01181494140625001,0.9973455810546874
713,-0.3024274809160301,0.060530534351145346,-0.5021793893129751,-0.009797119140625003,-0.02817236328125001,1.0078436279296874
714,-0.3329618320610683,0.38877480916030566,-0.4258435114503798,-0.007843994140625003,-0.03134619140625001,1.0178533935546874
715,-0.371129770992366,0.5872480916030538,-0.3800419847328225,0.013152099609374997,0.00844873046874999,1.0071112060546874
716,-0.2642595419847324,0.8773244274809163,-0.3037061068702271,0.0036306152343749975,-0.01352392578125001,0.9851385498046874
717,-0.05051908396946525,1.228469465648855,-0.28843893129770803,0.008757568359374997,0.00307763671874999,0.9883123779296874
718,0.13268702290076378,1.8162557251908402,-0.387675572519082,-0.027619384765625,-0.02035986328125001,1.0061346435546874
719,0.33879389312977143,2.251370229007634,-0.5479809160305325,-0.039338134765625005,-0.00619970703125001,1.0010076904296874
720,0.5754351145038172,2.449843511450382,-0.7082862595419828,-0.017121337890625,-0.01352392578125001,0.9919744873046874
721,0.8120763358778631,2.381141221374046,-0.654851145038166,-0.018342041015625,-0.01132666015625001,0.9638983154296874
722,0.8884122137404584,2.1903015267175574,-0.31133969465648664,0.013152099609374997,-0.01327978515625001,0.9880682373046874
723,0.8502442748091608,1.9307595419847332,0.04743893129771182,0.031950927734374995,-0.00082861328125001,0.9990545654296874
724,0.7281068702290081,1.6483167938931302,0.3298816793893149,0.022917724609375,-0.01401220703125001,1.0014959716796874
725,0.5983358778625958,1.350606870229008,0.46728625954198666,0.017302490234375,-0.01181494140625001,0.9953924560546874
726,0.43039694656488586,0.8773244274809163,0.43675190839694844,0.007781005859374997,-0.02353369140625001,1.0122381591796874
727,0.31589312977099276,0.3735076335877866,0.2230114503816813,-0.029328369140625,-0.02817236328125001,1.0102850341796874
728,0.178488549618321,0.052896946564885805,0.009270992366414127,-0.051789306640625005,-0.03574072265625001,1.0173651123046874
729,0.10215267175572562,-0.0768740458015264,-0.12813358778625764,-0.046418212890625005,-0.01572119140625001,1.0202947998046874
730,0.09451908396946607,-0.2524465648854959,-0.11286641221373855,-0.049592041015625005,0.00161279296874999,1.0093084716796874
731,0.20138931297709967,-0.5196221374045799,0.03980534351145226,-0.052765869140625005,0.01674951171874999,1.0290838623046874
732,0.5372671755725196,-0.5043549618320607,0.360416030534353,-0.040802978515625005,0.02163232421874999,0.9927069091796874
733,1.079251908396947,-0.5196221374045799,0.5130877862595439,-0.052277587890625005,-0.00034033203125001,0.9653631591796874
734,1.6059694656488555,-0.5806908396946562,0.40621755725191033,-0.074006103515625,0.01870263671874999,0.9668280029296874
735,1.8120763358778629,-0.11504198473282412,0.30698091603053623,-0.042511962890625005,-0.00180517578125001,0.9958807373046874
736,1.6517709923664128,0.06816412213740489,0.17720992366412402,-0.050324462890625005,-0.00693212890625001,1.0234686279296874
737,1.2853587786259546,0.19030152671755757,0.07797328244274998,-0.038361572265625005,-0.02743994140625001,1.0513006591796874
738,0.7433740458015272,0.029996183206107183,0.15430916030534542,-0.015412353515625003,-0.01230322265625001,1.0593572998046874
739,0.1555877862595424,-0.2753473282442745,0.30698091603053623,-0.006623291015625003,-0.01230322265625001,1.0749822998046874
740,-0.3329618320610683,-0.5196221374045799,0.4138511450381699,-0.013947509765625003,-0.01157080078125001,1.0703436279296874
741,-0.6459389312977095,-0.6264923664122134,0.444385496183208,-0.017853759765625,0.00600732421874999,1.0527655029296874
742,-0.6993740458015263,-0.4814541984732821,0.38331679389313167,-0.028595947265625,0.01357568359374999,1.0202947998046874
743,-0.5238015267175569,-0.28298091603053405,0.30698091603053623,-0.030549072265625,0.00161279296874999,0.9895330810546874
744,-0.18792366412213699,-0.06160687022900732,0.2001106870229027,-0.057892822265625005,-0.00815283203125001,0.9768377685546874
745,0.1937557251908401,0.2895381679389316,0.15430916030534542,-0.073517822265625,-0.00937353515625001,0.9534002685546874
746,0.5143664122137408,0.6559503816793896,0.2001106870229027,-0.048615478515625005,0.01577294921874999,0.9888006591796874
747,0.6594045801526722,0.9918282442748094,0.23827862595420035,-0.057892822265625005,0.01211083984374999,0.9973455810546874
748,0.6059694656488555,0.9536603053435118,0.30698091603053623,-0.046906494140625005,0.01211083984374999,1.0190740966796874
749,0.5067328244274814,0.8009885496183209,0.38331679389313167,-0.043244384765625005,0.00747216796874999,1.0349432373046874
750,0.3082595419847332,0.717019083969466,0.5054541984732843,-0.031281494140625005,0.00844873046874999,1.0278631591796874
751,0.025816793893130185,0.5948816793893132,0.5894236641221393,-0.014924072265625003,0.00844873046874999,1.0212713623046874
752,-0.18792366412213699,0.4727442748091606,0.6504923664122156,-0.016144775390625,0.00307763671874999,1.0156561279296874
753,-0.4398320610687019,0.3582404580152675,0.6886603053435133,-0.018097900390625,-0.00864111328125001,1.0132147216796874
754,-0.6688396946564881,0.3200725190839698,0.6886603053435133,-0.027131103515625,-0.00131689453125001,1.0071112060546874
755,-0.8291450381679385,0.5185458015267179,0.6657595419847347,-0.022004150390625,-0.02060400390625001,1.0068670654296874
756,-0.9818167938931293,0.8467900763358782,0.5359885496183225,-0.037140869140625005,-0.01620947265625001,0.9931951904296874
757,-1.1268549618320607,1.0986984732824432,0.40621755725191033,-0.046906494140625005,-0.01718603515625001,1.0017401123046874
758,-1.1421221374045798,1.4956450381679391,0.360416030534353,-0.049592041015625005,-0.00131689453125001,0.9944158935546874
759,-1.0352519083969463,1.946026717557252,0.48255343511450577,-0.058381103515625005,0.01186669921874999,0.9863592529296874
760,-0.8291450381679385,2.197935114503817,0.7726297709923683,-0.058625244140625005,0.03261865234374999,0.9851385498046874
761,-0.5467022900763354,2.2742709923664126,1.2840801526717578,-0.019074462890625,0.04067529296874999,0.9980780029296874
762,-0.20319083969465607,2.350606870229008,-0.18920229007633396,-0.004914306640625003,0.04726708984374999,1.0075994873046874
763,0.178488549618321,2.3887748091603056,1.8871335877862614,0.0026540527343749975,0.03774560546874999,0.9878240966796874
764,0.49909923664122174,2.2055687022900767,1.7039274809160325,-0.040070556640625005,-0.00131689453125001,0.9958807373046874
765,0.7281068702290081,1.9765610687022903,1.2688129770992385,-0.050324462890625005,-0.00717626953125001,1.0019842529296874
766,0.6975725190839699,1.846790076335878,0.7344618320610706,-0.066193603515625,-0.02890478515625001,1.0166326904296874
767,0.46856488549618364,1.564347328244275,0.38331679389313167,-0.056427978515625005,-0.03574072265625001,1.0373846435546874
768,0.09451908396946607,1.0528969465648856,0.19247709923664313,-0.042023681640625005,-0.01108251953125001,1.0683905029296874
769,1.5983358778625958,0.5872480916030538,0.2917137404580171,0.0026540527343749975,0.00307763671874999,1.0586248779296874
770,-0.6688396946564881,0.09869847328244305,0.46728625954198666,0.011931396484374997,0.00185693359374999,1.0593572998046874
771,-0.8596793893129766,-0.4127519083969463,0.5817900763358798,0.0009450683593749975,0.00625146484374999,1.0320135498046874
772,-0.8138778625954195,-0.5043549618320607,0.45201908396946755,-0.041291259765625005,0.01504052734374999,1.0046697998046874
773,-0.539068702290076,-0.3135152671755722,0.18484351145038358,-0.072052978515625,0.02382958984374999,0.9773260498046874
774,-0.1726564885496179,-0.031072519083969158,-0.18156870229007444,-0.095246337890625,0.01186669921874999,0.9465643310546874
775,0.27009160305343555,0.2513702290076339,-0.41820992366412024,-0.092804931640625,0.01186669921874999,0.9546209716796874
776,0.6441374045801531,0.33533969465648883,-0.4945458015267157,-0.076203369140625,0.00307763671874999,0.9580389404296874
777,0.9571145038167943,0.3124389312977102,-0.3800419847328225,-0.057160400390625005,0.00991357421874999,0.9651190185546874
778,1.1479541984732828,0.21320229007633618,-0.23500381679389123,-0.032990478515625005,0.01723779296874999,0.9905096435546874
779,1.2013893129770996,0.08343129770992397,-0.19683587786259352,-0.048371337890625005,0.00063623046874999,0.9912420654296874
780,1.1479541984732828,-0.031072519083969158,-0.16630152671755535,-0.069123291015625,-0.00986181640625001,0.9853826904296874
781,0.8884122137404584,-0.2524465648854959,0.0016374045801545722,-0.044465087890625005,-0.02158056640625001,1.0078436279296874
782,0.49909923664122174,-0.5196221374045799,0.17720992366412402,-0.039338134765625005,-0.01938330078125001,1.0249334716796874
783,0.07161832061068746,-0.7257290076335875,0.36804961832061256,-0.045441650390625005,0.00381005859374999,1.0293280029296874
784,-0.2566259541984729,-0.7638969465648852,0.43675190839694844,-0.048127197265625005,0.00747216796874999,1.0229803466796874
785,-0.3863969465648851,-0.6722938931297707,0.3756832061068721,-0.056916259765625005,0.00088037109374999,0.9995428466796874
786,-0.3024274809160301,-0.5577900763358775,0.2993473282442767,-0.063019775390625,0.00747216796874999,0.9814764404296874
787,-0.05815267175572475,-0.5654236641221371,0.2230114503816813,-0.063996337890625,0.00551904296874999,0.9673162841796874
788,0.17085496183206145,-0.6417595419847325,0.2459122137404599,-0.051056884765625005,0.00307763671874999,0.9507147216796874
789,0.3769618320610691,-0.6799274809160303,0.2840801526717576,-0.047638916015625005,0.00625146484374999,0.9751287841796874
790,0.41512977099236686,-0.6951946564885493,0.17720992366412402,-0.057160400390625005,0.00918115234374999,0.9819647216796874
791,0.4074961832061073,-0.5577900763358775,0.016904580152673654,-0.063752197265625,0.00258935546874999,0.9836737060546874
792,0.36932824427480954,-0.3287824427480913,-0.2121030534351126,-0.074494384765625,-0.00156103515625001,0.9907537841796874
793,0.3922290076335882,-0.26008015267175544,-0.3418740458015248,-0.079133056640625,-0.00595556640625001,0.9990545654296874
794,0.4227633587786264,-0.2982480916030531,-0.3037061068702271,-0.064972900390625,0.02724755859374999,1.0051580810546874
795,0.5143664122137408,-0.2982480916030531,-0.19683587786259352,-0.036408447265625005,0.02016748046874999,0.9931951904296874
796,0.7357404580152676,-0.26008015267175544,-0.18156870229007444,-0.041291259765625005,0.01504052734374999,0.9892889404296874
797,0.9189465648854966,-0.3440496183206104,-0.18920229007633396,-0.048127197265625005,0.01211083984374999,0.9880682373046874
798,1.0716183206106875,-0.43565267175572486,-0.14340076335877672,-0.028840087890625,0.01186669921874999,0.9829412841796874
799,1.163221374045802,-0.4967213740458012,-0.07469847328244084,-0.045929931640625005,0.01504052734374999,0.9846502685546874
800,1.1479541984732828,-0.5730572519083966,0.07797328244274998,-0.043488525390625005,0.01577294921874999,0.9968572998046874
801,0.995282442748092,-0.550156488549618,0.2230114503816813,-0.036652587890625005,0.01162255859374999,1.0217596435546874
802,0.7510076335877867,-0.6112251908396944,0.2840801526717576,-0.037385009765625005,0.00771630859374999,1.0017401123046874
803,0.46856488549618364,-0.6112251908396944,0.3146145038167958,-0.033234619140625005,0.00283349609374999,1.0090643310546874
804,0.17085496183206145,-0.5272557251908394,0.23064503816794085,-0.046418212890625005,-0.00253759765625001,1.0034490966796874
805,-0.07341984732824386,-0.3974847328244272,0.1161412213740477,-0.049103759765625005,-0.00522314453125001,1.0000311279296874
806,-0.20319083969465607,-0.3440496183206104,0.009270992366414127,-0.057892822265625005,0.01601708984374999,0.9905096435546874
807,-0.1726564885496179,-0.23717938931297677,-0.005996183206104955,-0.052765869140625005,0.01357568359374999,0.9875799560546874
808,-0.03525190839694614,-0.09214122137404548,-0.02889694656488359,-0.045441650390625005,0.01943505859374999,0.9773260498046874
809,0.08688549618320651,0.045263358778626264,-0.04416412213740267,-0.050324462890625005,0.01894677734374999,0.9658514404296874
810,0.27009160305343555,0.1063320610687026,0.009270992366414127,-0.045929931640625005,0.01601708984374999,0.9780584716796874
811,0.38459541984732865,0.19030152671755757,0.03980534351145226,-0.031769775390625005,0.02285302734374999,0.9895330810546874
812,0.43039694656488586,0.2513702290076339,0.07797328244274998,-0.032013916015625005,0.02529443359374999,0.9966131591796874
813,0.35406106870229054,0.182667938931298,0.07033969465649048,-0.045929931640625005,0.01845849609374999,1.0161444091796874
814,0.27009160305343555,0.24373664122137434,0.0016374045801545722,-0.037873291015625005,0.01284326171874999,1.0168768310546874
815,0.12505343511450423,0.2513702290076339,-0.11286641221373855,-0.049103759765625005,0.01284326171874999,1.0132147216796874
816,0.010549618320611076,0.3200725190839698,-0.3037061068702271,-0.055939697265625005,0.00576318359374999,1.0036932373046874
817,-0.14975572519083927,0.41167557251908427,-0.46401145038167746,-0.050568603515625005,0.00283349609374999,0.9971014404296874
818,-0.20319083969465607,0.4269427480916034,-0.5937824427480898,-0.044465087890625005,0.00478662109374999,0.9868475341796874
819,-0.23372519083969423,0.3582404580152675,-0.555614503816792,-0.033722900390625005,0.00649560546874999,0.9873358154296874
820,-0.2642595419847324,0.20556870229007665,-0.46401145038167746,-0.016633056640625,0.01308740234374999,0.9905096435546874
821,-0.34059541984732783,0.060530534351145346,-0.3037061068702271,-0.019074462890625,0.01674951171874999,0.9783026123046874
822,-0.40166412213740416,-0.08450763358778596,-0.1586679389312958,-0.027375244140625,0.02529443359374999,1.0080877685546874
823,-0.4779999999999996,-0.12267557251908368,-0.06706488549618131,-0.031037353515625,0.00966943359374999,1.0095526123046874
824,-0.4779999999999996,-0.06924045801526688,0.009270992366414127,-0.044220947265625005,0.02358544921874999,1.0029608154296874
825,-0.3940305343511446,-0.04633969465648824,0.05507251908397137,-0.041291259765625005,0.02724755859374999,0.9924627685546874
826,-0.2642595419847324,-0.12267557251908368,0.07797328244274998,-0.029572509765625,0.02651513671874999,1.0068670654296874
827,-0.0657862595419843,-0.26008015267175544,0.10087404580152864,-0.045441650390625005,0.03701318359374999,0.9924627685546874
828,0.14795419847328284,-0.3593167938931294,0.23827862595420035,-0.034943603515625005,0.02553857421874999,1.0058905029296874
829,0.28535877862595466,-0.3974847328244272,0.33751526717557445,-0.022492431640625,0.02016748046874999,1.0012518310546874
830,0.35406106870229054,-0.2982480916030531,0.2840801526717576,-0.034455322265625005,0.01162255859374999,0.9971014404296874
831,0.3311603053435119,-0.08450763358778596,0.05507251908397137,-0.030304931640625,-0.01132666015625001,0.9858709716796874
832,0.21665648854961878,0.029996183206107183,-0.18920229007633396,-0.052277587890625005,-0.00717626953125001,0.9909979248046874
833,-0.03525190839694614,0.1063320610687026,-0.24263740458015076,-0.047394775390625005,-0.00668798828125001,1.0041815185546874
834,-0.29479389312977056,0.03762977099236672,-0.22737022900763168,-0.034943603515625005,0.01845849609374999,1.0200506591796874
835,-0.4856335877862591,-0.13030916030534323,-0.1204999999999981,-0.030793212890625,0.01748193359374999,1.0151678466796874
836,-0.5619694656488545,-0.2906145038167936,0.02453816793893321,-0.022492431640625,0.02041162109374999,1.0132147216796874
837,-0.5085343511450378,-0.40511832061068676,0.02453816793893321,-0.019806884765625,0.02407373046874999,0.9944158935546874
838,-0.3482290076335874,-0.3974847328244272,-0.07469847328244084,-0.034699462890625005,0.01967919921874999,1.0061346435546874
839,-0.13448854961832019,-0.24481297709923633,-0.23500381679389123,-0.053498291015625005,0.01357568359374999,0.9885565185546874
840,0.08688549618320651,-0.06924045801526688,-0.33424045801526525,-0.029328369140625,0.01284326171874999,0.9814764404296874
841,0.30062595419847365,-0.008171755725190522,-0.471645038167937,-0.044220947265625005,0.02456201171874999,0.9826971435546874
842,0.3769618320610691,-0.06924045801526688,-0.5479809160305325,-0.044465087890625005,0.00283349609374999,0.9809881591796874
843,0.2929923664122141,-0.11504198473282412,-0.4869122137404561,-0.043732666015625005,-0.00327001953125001,0.9958807373046874
844,0.07925190839694696,0.00709541984732856,-0.4105763358778607,-0.038117431640625005,0.00918115234374999,1.0061346435546874
845,-0.21845801526717518,0.060530534351145346,-0.31133969465648664,-0.045929931640625005,0.01748193359374999,1.0224920654296874
846,-0.40166412213740416,0.13686641221374077,-0.18920229007633396,-0.044953369140625005,0.01967919921874999,1.0010076904296874
847,-0.455099236641221,0.24373664122137434,-0.05179770992366223,-0.042267822265625005,0.02114404296874999,0.9897772216796874
848,-0.37876335877862555,0.2513702290076339,0.009270992366414127,-0.030304931640625,0.02358544921874999,0.9814764404296874
849,-0.23372519083969423,0.182667938931298,0.03980534351145226,-0.027863525390625,0.03896630859374999,0.9660955810546874
850,-0.08868702290076297,0.022362595419847642,0.032171755725192736,-0.032746337890625005,0.02480615234374999,0.9646307373046874
851,0.002916030534351577,-0.24481297709923633,0.009270992366414127,-0.042756103515625005,0.00625146484374999,0.9636541748046874
852,0.01818320610687063,-0.3593167938931294,-0.01362977099236451,-0.043000244140625005,0.02334130859374999,0.9917303466796874
853,-0.05051908396946525,-0.2982480916030531,0.02453816793893321,-0.039582275390625005,0.02065576171874999,0.9934393310546874
854,-0.10395419847328202,-0.2066450381679386,-0.08996564885495993,-0.051301025390625005,0.01821435546874999,1.0095526123046874
855,-0.08868702290076297,-0.10740839694656457,-0.13576717557251716,-0.062531494140625,0.00966943359374999,1.0019842529296874
856,-0.042885496183205696,0.052896946564885805,-0.20446946564885304,-0.044953369140625005,0.03286279296874999,0.9800115966796874
857,0.048717557251908794,0.21320229007633618,-0.2731717557251889,-0.045441650390625005,0.01919091796874999,0.9924627685546874
858,0.1937557251908401,0.2895381679389316,-0.3037061068702271,-0.052277587890625005,0.01528466796874999,0.9888006591796874
859,0.30062595419847365,0.33533969465648883,-0.23500381679389123,-0.030304931640625,0.01577294921874999,0.9775701904296874
860,0.3922290076335882,0.26663740458015295,-0.09759923664121947,-0.016633056640625,0.02114404296874999,0.9924627685546874
861,0.33879389312977143,0.00709541984732856,-0.01362977099236451,-0.020539306640625,-0.00156103515625001,1.0054022216796874
862,0.178488549618321,-0.13030916030534323,0.016904580152673654,-0.026886962890625,0.01406396484374999,1.0112615966796874
863,0.002916030534351577,-0.14557633587786228,0.009270992366414127,-0.042756103515625005,0.01870263671874999,1.0217596435546874
864,-0.16502290076335838,-0.17611068702290045,-0.036530534351143146,-0.048371337890625005,0.02089990234374999,1.0151678466796874
865,-0.24899236641221334,-0.1684770992366409,-0.08233206106870039,-0.050324462890625005,0.02285302734374999,1.0000311279296874
866,-0.20319083969465607,-0.11504198473282412,-0.18920229007633396,-0.038117431640625005,0.02407373046874999,0.9802557373046874
867,-0.0657862595419843,-0.10740839694656457,1.7268282442748109,-0.040314697265625005,0.01992333984374999,0.9673162841796874
868,0.03345038167938974,-0.10740839694656457,-0.24263740458015076,-0.035187744140625005,0.00112451171874999,0.9660955810546874
869,0.09451908396946607,-0.06160687022900732,-0.28843893129770803,-0.020783447265625,-0.00595556640625001,0.9678045654296874
870,0.01818320610687063,0.03762977099236672,-0.33424045801526525,-0.030060791015625,0.00112451171874999,0.9643865966796874
871,-0.12685496183206066,0.07579770992366443,-0.4105763358778607,-0.044709228515625005,0.00185693359374999,0.9853826904296874
872,-0.3253282442748087,0.19030152671755757,-0.4869122137404561,-0.055207275390625005,-0.00302587890625001,0.9983221435546874
873,-0.4627328244274805,0.4193091603053438,-0.5479809160305325,-0.040070556640625005,0.01919091796874999,0.9958807373046874
874,-0.4321984732824423,0.5261793893129774,-0.570881679389311,-0.040070556640625005,0.02285302734374999,0.9768377685546874
875,-0.28716030534351106,0.5032786259541988,-0.5174465648854942,-0.042756103515625005,0.01772607421874999,0.9673162841796874
876,-0.0963206106870225,0.39640839694656516,-0.3800419847328225,-0.016388916015625,0.02480615234374999,0.9729315185546874
877,0.10978625954198512,0.17503435114503849,-0.19683587786259352,-0.016877197265625,0.02505029296874999,0.9841619873046874
878,0.1937557251908401,-0.08450763358778596,-0.005996183206104955,-0.013703369140625003,0.01919091796874999,1.0002752685546874
879,0.1632213740458019,-0.26008015267175544,0.15430916030534542,-0.010773681640625003,0.01943505859374999,1.0049139404296874
880,0.09451908396946607,-0.3516832061068699,0.06270610687023093,-0.038605712890625005,0.02163232421874999,0.9861151123046874
881,-0.042885496183205696,-0.3516832061068699,-0.14340076335877672,-0.062043212890625005,-0.00375830078125001,0.9973455810546874
882,-0.13448854961832019,-0.23717938931297677,-0.31133969465648664,-0.068635009765625,-0.01035009765625001,0.9944158935546874
883,-0.28716030534351106,-0.13794274809160273,-0.3571412213740439,-0.054963134765625005,0.00356591796874999,1.0017401123046874
884,-0.37876335877862555,-0.09977480916030501,-0.37240839694656297,-0.047883056640625005,-0.00253759765625001,1.0012518310546874
885,-0.44746564885496143,-0.03870610687022871,-0.37240839694656297,-0.056672119140625005,-0.00180517578125001,0.9800115966796874
886,-0.4779999999999996,-0.06924045801526688,-0.3189732824427462,-0.044220947265625005,0.01821435546874999,0.9951483154296874
887,-0.4627328244274805,-0.08450763358778596,-0.20446946564885304,-0.038361572265625005,0.01040185546874999,1.0041815185546874
888,-0.371129770992366,-0.12267557251908368,-0.11286641221373855,-0.033478759765625005,0.02138818359374999,1.0002752685546874
889,-0.1726564885496179,-0.12267557251908368,-0.02889694656488359,-0.041047119140625005,0.03017724609374999,0.9773260498046874
890,0.01818320610687063,-0.1684770992366409,0.009270992366414127,-0.036896728515625005,0.02675927734374999,0.9619451904296874
891,0.23955725190839733,-0.14557633587786228,0.02453816793893321,-0.048371337890625005,0.02065576171874999,0.9680487060546874
892,0.39986259541984776,-0.10740839694656457,-0.07469847328244084,-0.062775634765625,0.02456201171874999,0.9685369873046874
893,0.44566412213740497,-0.015805343511450076,-0.1586679389312958,-0.063263916015625,0.00625146484374999,0.9751287841796874
894,0.36169465648855,0.03762977099236672,-0.19683587786259352,-0.053254150390625005,0.00063623046874999,0.9936834716796874
895,0.18612213740458056,0.014729007633588087,-0.25790458015266987,-0.053986572265625005,0.00942529296874999,1.0063787841796874
896,0.05635114503816835,-0.0005381679389309946,-0.24263740458015076,-0.043244384765625005,0.00210107421874999,1.0198065185546874
897,-0.012351145038167533,0.029996183206107183,-0.20446946564885304,-0.040070556640625005,0.00600732421874999,0.9995428466796874
898,-0.004717557251907978,-0.03870610687022871,-0.1204999999999981,-0.042267822265625005,-0.00424658203125001,0.9927069091796874
899,0.05635114503816835,-0.06924045801526688,-0.01362977099236451,-0.039582275390625005,-0.00522314453125001,0.9909979248046874
900,0.14032061068702334,-0.053973282442747794,0.14667557251908586,-0.031525634765625005,0.01137841796874999,0.9956365966796874
901,0.1937557251908401,-0.09214122137404548,0.25354580152671946,-0.031037353515625,0.01528466796874999,0.9848944091796874
902,0.27009160305343555,-0.14557633587786228,0.23064503816794085,-0.038117431640625005,0.00503076171874999,0.9912420654296874
903,0.262458015267176,-0.1684770992366409,0.07033969465649048,-0.049592041015625005,-0.00497900390625001,0.9968572998046874
904,0.20902290076335922,-0.1608435114503814,-0.09759923664121947,-0.049103759765625005,0.00039208984374999,0.9995428466796874
905,0.1632213740458019,-0.1608435114503814,-0.16630152671755535,-0.040802978515625005,0.00185693359374999,1.0012518310546874
906,0.11741984732824468,-0.21427862595419817,1.7344618320610707,-0.040802978515625005,0.00893701171874999,1.0007635498046874
907,0.14795419847328284,-0.19901145038167906,-0.1586679389312958,-0.036408447265625005,-9.619140625001e-05,0.9941717529296874
908,0.10215267175572562,-0.17611068702290045,-0.07469847328244084,-0.034455322265625005,0.02163232421874999,0.9880682373046874
909,0.14032061068702334,-0.053973282442747794,0.03980534351145226,-0.032746337890625005,0.02407373046874999,0.9812322998046874
910,0.2929923664122141,0.12159923664122169,0.07797328244274998,-0.038117431640625005,0.02553857421874999,0.9802557373046874
911,0.4380305343511454,0.19030152671755757,-0.01362977099236451,-0.049103759765625005,0.02016748046874999,0.9804998779296874
912,0.5601679389312981,0.24373664122137434,-0.17393511450381488,-0.050080322265625005,0.02212060546874999,0.9773260498046874
913,0.5983358778625958,0.3200725190839698,-0.2808053435114485,-0.058869384765625005,0.01430810546874999,0.9902655029296874
914,0.4914656488549623,0.1979351145038171,-0.3571412213740439,-0.036164306640625005,0.00966943359374999,1.0110174560546874
915,0.3235267175572523,0.11396564885496213,-0.3571412213740439,-0.012238525390625003,0.00014794921874999,1.0039373779296874
916,0.08688549618320651,-0.023438931297709603,-0.3800419847328225,-0.012726806640625003,-0.00790869140625001,0.9934393310546874
917,-0.15738931297709882,-0.13794274809160273,-0.4487442748091584,-0.033967041015625005,-0.00644384765625001,1.0110174560546874
918,-0.37876335877862555,-0.15320992366412184,-0.4869122137404561,-0.044220947265625005,0.01162255859374999,1.0154119873046874
919,-0.4627328244274805,-0.09214122137404548,-0.37240839694656297,-0.039582275390625005,0.03921044921874999,1.0137030029296874
920,-0.3940305343511446,-0.13030916030534323,-0.28843893129770803,-0.039338134765625005,0.01259912109374999,0.9971014404296874
921,-0.19555725190839654,-0.13794274809160273,-0.20446946564885304,-0.041047119140625005,0.03481591796874999,0.9861151123046874
922,0.03345038167938974,-0.09977480916030501,-0.10523282442747901,-0.036652587890625005,0.03066552734374999,0.9875799560546874
923,0.17085496183206145,-0.031072519083969158,-0.10523282442747901,-0.042756103515625005,0.01357568359374999,0.9868475341796874
924,0.20138931297709967,0.014729007633588087,-0.13576717557251716,-0.044465087890625005,0.00332177734374999,0.9919744873046874
925,0.05635114503816835,0.029996183206107183,-0.2502709923664103,-0.046906494140625005,-0.01279150390625001,0.9971014404296874
926,-0.1192213740458011,-0.06924045801526688,-0.3189732824427462,-0.047150634765625005,0.00063623046874999,0.9944158935546874
927,-0.4092977099236637,-0.2066450381679386,-0.31133969465648664,-0.044953369140625005,0.00234521484374999,1.0095526123046874
