Number,Gyro_X,Gyro_Y,Gyro_Z,Acc_X,Acc_Y,Acc_Z,MagX,MagY,MagZ
1,-0.9236793893129776,-7.455335877862596,3.5967022900763337,-0.0027803955078123596,-0.0001788330078123096,1.0026893310546896,-3690.6,-1728.8999999999999,148.79999999999998
2,-0.23665648854961874,-4.371366412213741,-4.8307786259542,-0.0025362548828123596,-0.0018878173828123096,0.9848670654296896,-3690.6,-1728.8999999999999,148.79999999999998
3,2.1144885496183203,-0.6156412213740459,5.627236641221372,0.0001492919921876404,0.0007977294921876904,1.0043983154296896,-3690.6,-1728.8999999999999,148.79999999999998
4,-0.09925190839694698,-1.9438854961832062,-2.052152671755727,-9.484863281235961e-05,-0.0016436767578123096,0.9978065185546896,-3690.6,-1728.8999999999999,148.79999999999998
5,0.9389160305343507,-0.2034274809160306,3.474564885496181,-0.0003389892578123596,0.0029949951171876904,0.9997596435546896,-3690.6,-1728.8999999999999,148.79999999999998
6,-1.152687022900764,1.6286335877862594,3.123419847328242,-0.0022921142578123596,0.0027508544921876904,1.0019569091796896,-3690.6,-1728.8999999999999,148.79999999999998
7,-1.152687022900764,-0.3255648854961833,-0.3422290076335903,0.0001492919921876404,-0.0004229736328123096,1.0004920654296896,-3690.6,-1728.8999999999999,148.79999999999998
8,-1.5801679389312981,3.6591679389312977,-6.34222900763359,-9.484863281235961e-05,-0.00408508300781231,1.0095252685546896,-3690.6,-1728.8999999999999,148.79999999999998
9,-2.1297862595419854,4.224053435114504,-2.3269618320610705,-0.0005831298828123596,0.0010418701171876904,1.0114783935546896,-3690.6,-1728.8999999999999,148.79999999999998
10,0.4961679389312972,-2.066022900763359,0.7417404580152649,-0.0015596923828123596,-0.01507141113281231,0.9990272216796896,-3690.6,-1728.8999999999999,148.79999999999998
11,-1.1068854961832064,-0.8293816793893131,-2.693374045801529,-0.00473352050781236,0.0012860107421876904,0.9995155029296896,-3690.6,-1728.8999999999999,148.79999999999998
12,-2.0076488549618325,-2.5851068702290076,-7.50253435114504,0.0003934326171876404,-0.0004229736328123096,1.0017127685546896,-3690.6,-1728.8999999999999,148.79999999999998
13,0.6793740458015263,2.7736717557251906,-0.32696183206107055,-0.0010714111328123596,-0.0038409423828123096,1.0026893310546896,-3690.6,-1728.8999999999999,148.79999999999998
14,-1.534366412213741,1.7049694656488548,-2.7697099236641245,0.0018582763671876404,-0.0016436767578123096,1.0036658935546896,-3690.6,-1728.8999999999999,148.79999999999998
15,1.1526564885496178,0.8500076335877862,4.283725190839693,0.0011258544921876404,-0.0026202392578123096,1.0065955810546896,-3690.6,-1728.8999999999999,148.79999999999998
16,-1.152687022900764,1.4759618320610686,0.2531908396946543,0.0018582763671876404,0.0005535888671876904,0.9992713623046896,-3690.6,-1728.8999999999999,148.79999999999998
17,2.496167938931297,1.1706183206106868,-4.021618320610689,-0.0020479736328123596,0.0007977294921876904,1.0002479248046896,-3690.6,-1728.8999999999999,148.79999999999998
18,-2.312992366412214,3.4148931297709924,2.298992366412212,0.0006375732421876404,0.00421569824218769,0.9965858154296896,-3690.6,-1728.8999999999999,148.79999999999998
19,1.8091450381679386,1.2164198473282442,2.81807633587786,0.0011258544921876404,-0.0001788330078123096,1.0019569091796896,-3690.6,-1728.8999999999999,148.79999999999998
20,-3.04581679389313,-2.401900763358779,-2.082687022900765,-0.0015596923828123596,0.0025067138671876904,1.0012244873046896,-3690.6,-1728.8999999999999,148.79999999999998
21,-2.0992519083969468,5.002679389312977,2.3447938931297685,-0.0005831298828123596,6.53076171876904e-05,1.0051307373046896,-3690.6,-1728.8999999999999,148.79999999999998
22,-1.4122290076335882,2.254587786259542,2.16158778625954,-0.01987023925781236,0.0010418701171876904,0.9990272216796896,-3690.6,-1728.8999999999999,148.79999999999998
23,-0.5725343511450387,-1.0736564885496183,4.176854961832059,0.0011258544921876404,0.0017742919921876904,0.9982947998046896,-3690.6,-1728.8999999999999,148.79999999999998
24,-0.45039694656488605,2.101916030534351,-1.1513893129771011,0.0003934326171876404,0.01300476074218769,0.9975623779296896,-3690.6,-1728.8999999999999,148.79999999999998
25,-0.7557404580152676,-1.7759465648854962,0.7722748091603036,0.0028348388671876404,0.00397155761718769,0.9948768310546896,-3690.6,-1728.8999999999999,148.79999999999998
26,-2.496198473282443,-4.768312977099237,-2.815511450381682,-0.0020479736328123596,0.0020184326171876904,1.0056190185546896,-3690.6,-1728.8999999999999,148.79999999999998
27,2.0381526717557246,5.216419847328244,-8.601770992366415,0.00429968261718764,-0.0021319580078123096,0.9985389404296896,-3690.6,-1728.8999999999999,148.79999999999998
28,-2.0992519083969468,1.5980992366412212,6.283725190839692,-0.0013155517578123596,0.0029949951171876904,0.9980506591796896,-3690.6,-1728.8999999999999,148.79999999999998
29,-0.7099389312977105,3.2469541984732824,2.054717557251906,-0.0027803955078123596,0.0012860107421876904,1.0026893310546896,-3690.6,-1728.8999999999999,148.79999999999998
30,0.022885496183205678,1.1095496183206106,-1.3498625954198493,-0.0010714111328123596,0.00421569824218769,1.0107459716796896,-3690.6,-1728.8999999999999,148.79999999999998
31,-0.49619847328244315,0.6515343511450381,3.123419847328242,0.00405554199218764,6.53076171876904e-05,0.9995155029296896,-3690.6,-1728.8999999999999,148.79999999999998
32,-0.23665648854961874,4.6209999999999996,1.0318167938931273,0.00478796386718764,-0.0011553955078123096,0.9992713623046896,-3690.6,-1728.8999999999999,148.79999999999998
33,-1.3511603053435117,3.2622213740458013,3.840977099236639,0.0008817138671876404,-0.0028643798828123096,0.9990272216796896,-3690.6,-1728.8999999999999,148.79999999999998
34,-0.6183358778625958,5.628633587786259,-4.143755725190842,-9.484863281235961e-05,0.0010418701171876904,0.9838905029296896,-3690.6,-1728.8999999999999,148.79999999999998
35,-2.190854961832062,-2.066022900763359,3.4287633587786237,-0.0010714111328123596,0.0005535888671876904,1.0097694091796896,-3690.6,-1728.8999999999999,148.79999999999998
36,-0.1450534351145043,-3.8370152671755724,-4.143755725190842,0.0023465576171876404,-0.0023760986328123096,1.0004920654296896,-3690.6,-1728.8999999999999,148.79999999999998
37,0.9847175572519079,3.872908396946565,-1.4261984732824446,-9.484863281235961e-05,0.0005535888671876904,1.0029334716796896,-3690.6,-1728.8999999999999,148.79999999999998
38,-1.931312977099237,-2.0812900763358777,1.5356335877862577,0.0018582763671876404,0.0012860107421876904,0.9956092529296896,-3690.6,-1728.8999999999999,148.79999999999998
39,1.7938778625954193,7.384358778625954,-3.8689465648854986,0.0028348388671876404,-0.0016436767578123096,0.9992713623046896,-3690.6,-1728.8999999999999,148.79999999999998
40,0.8931145038167934,-6.020221374045802,-2.9681832061068727,-0.0013155517578123596,6.53076171876904e-05,1.0017127685546896,-3690.6,-1728.8999999999999,148.79999999999998
41,0.5114351145038163,3.5828320610687023,2.940213740458013,-0.00546594238281236,0.0010418701171876904,1.0097694091796896,-3690.6,-1728.8999999999999,148.79999999999998
42,-1.0152824427480922,-1.2721297709923665,-0.5407022900763376,-0.0005831298828123596,-0.0006671142578123096,0.9990272216796896,-3690.6,-1728.8999999999999,148.79999999999998
43,-1.5801679389312981,0.3919923664122137,-1.059786259541987,-0.0020479736328123596,0.0005535888671876904,1.0107459716796896,-3690.6,-1728.8999999999999,148.79999999999998
44,-1.2748244274809164,3.369091603053435,-2.388030534351148,0.0003934326171876404,6.53076171876904e-05,0.9943885498046896,-3690.6,-1728.8999999999999,148.79999999999998
45,-0.9694809160305347,3.5828320610687023,1.840977099236639,0.0035672607421876404,6.53076171876904e-05,1.0056190185546896,-3690.6,-1728.8999999999999,148.79999999999998
46,-0.9694809160305347,4.1782519083969465,0.6806717557251885,-0.0018038330078123596,-0.0011553955078123096,1.0061072998046896,-3690.6,-1728.8999999999999,148.79999999999998
47,-2.7099389312977102,-3.149992366412214,-1.3651297709923682,0.0011258544921876404,-0.0004229736328123096,1.0004920654296896,-3690.6,-1728.8999999999999,148.79999999999998
48,1.3358625954198469,2.78893893129771,-4.449099236641223,0.0018582763671876404,-0.0006671142578123096,0.9982947998046896,-3690.6,-1728.8999999999999,148.79999999999998
49,1.3358625954198469,-0.0202213740458016,5.123419847328242,-0.0003389892578123596,-0.01702453613281231,1.0004920654296896,-3690.6,-1728.8999999999999,148.79999999999998
50,1.5038015267175568,-2.9667862595419847,-4.494900763358781,0.0013699951171876404,6.53076171876904e-05,1.0007362060546896,-3690.6,-1728.8999999999999,148.79999999999998
51,-1.2748244274809164,3.1248167938931295,1.1386870229007613,-0.0008272705078123596,0.0015301513671876904,1.0034217529296896,-3690.6,-1728.8999999999999,148.79999999999998
52,0.816778625954198,1.5064961832061068,4.863877862595418,0.0016141357421876404,0.00592468261718769,1.0002479248046896,-3690.6,-1728.8999999999999,148.79999999999998
53,2.7099083969465645,4.926343511450382,-8.143755725190843,0.00454382324218764,0.0027508544921876904,0.9934119873046896,-3690.6,-1728.8999999999999,148.79999999999998
54,0.022885496183205678,-5.195793893129771,2.298992366412212,0.0003934326171876404,-0.0004229736328123096,1.0012244873046896,-3690.6,-1728.8999999999999,148.79999999999998
55,0.4656335877862591,3.308022900763359,-0.3422290076335903,0.0023465576171876404,-0.01629211425781231,1.0007362060546896,-3690.6,-1728.8999999999999,148.79999999999998
56,0.6335725190839689,1.4912290076335877,-3.1055877862595436,-0.0003389892578123596,-0.0021319580078123096,0.9941444091796896,-3690.6,-1728.8999999999999,148.79999999999998
57,2.297694656488549,-4.814114503816794,-0.05215267175572702,0.0011258544921876404,-0.00408508300781231,0.9819373779296896,-3690.6,-1728.8999999999999,148.79999999999998
58,-2.5420000000000007,-1.3026641221374047,6.4516641221374025,-0.0003389892578123596,0.0029949951171876904,1.0029334716796896,-3690.6,-1728.8999999999999,148.79999999999998
59,-0.49619847328244315,-4.997320610687023,6.436396946564884,-0.0010714111328123596,-0.0006671142578123096,0.9987830810546896,-3690.6,-1728.8999999999999,148.79999999999998
60,-2.6641374045801536,0.2545877862595419,-4.052152671755727,-0.0005831298828123596,0.0005535888671876904,1.0019569091796896,-3690.6,-1728.8999999999999,148.79999999999998
61,-0.5725343511450387,2.651534351145038,5.32189312977099,0.0013699951171876404,-0.0004229736328123096,1.0009803466796896,-3690.6,-1728.8999999999999,148.79999999999998
62,-1.6107022900763364,-6.004954198473283,-3.8078778625954213,-0.0013155517578123596,-0.0013995361328123096,0.9980506591796896,-3690.6,-1728.8999999999999,148.79999999999998
63,0.8931145038167934,-0.2034274809160306,3.3066259541984713,0.0038114013671876404,6.53076171876904e-05,1.0119666748046896,-3690.6,-1728.8999999999999,148.79999999999998
64,2.0228854961832057,2.5904656488549618,-1.9605496183206137,0.00600866699218764,-0.0006671142578123096,1.0017127685546896,-3690.6,-1728.8999999999999,148.79999999999998
65,-0.45039694656488605,1.4606946564885495,-0.9681832061068727,0.0028348388671876404,-0.01604797363281231,1.0012244873046896,-3690.6,-1728.8999999999999,148.79999999999998
66,0.7251755725190835,-2.814114503816794,-0.8002442748091623,-0.0020479736328123596,-0.0031085205078123096,1.0022010498046896,-3690.6,-1728.8999999999999,148.79999999999998
67,0.7251755725190835,7.048480916030535,-6.418564885496186,-0.00400109863281236,-0.0006671142578123096,1.0009803466796896,-3690.6,-1728.8999999999999,148.79999999999998
68,-1.1832213740458022,2.3919923664122136,-8.891847328244278,-0.0008272705078123596,-0.0009112548828123096,1.0012244873046896,-3690.6,-1728.8999999999999,148.79999999999998
69,-1.534366412213741,3.216419847328244,2.741740458015265,0.0030789794921876404,-0.0004229736328123096,0.9990272216796896,-3690.6,-1728.8999999999999,148.79999999999998
70,-0.45039694656488605,1.3843587786259541,4.100519083969464,0.0035672607421876404,-0.0011553955078123096,0.9992713623046896,-3690.6,-1728.8999999999999,148.79999999999998
71,0.6030381679389308,-7.577473282442748,-2.601770992366414,0.0013699951171876404,-0.01751281738281231,0.9992713623046896,-3690.6,-1728.8999999999999,148.79999999999998
72,0.2824274809160301,5.796572519083969,-8.601770992366415,0.0008817138671876404,6.53076171876904e-05,0.9958533935546896,-3690.6,-1728.8999999999999,148.79999999999998
73,-0.4045954198473287,-3.195793893129771,-0.006351145038170358,-0.00644250488281236,0.01349304199218769,0.9958533935546896,-3690.6,-1728.8999999999999,148.79999999999998
74,2.5572366412213734,-1.9896870229007635,-5.746809160305346,-0.0022921142578123596,-0.00701477050781231,1.0031776123046896,-3690.6,-1728.8999999999999,148.79999999999998
75,3.030519083969465,3.766038167938931,3.0623511450381655,0.0013699951171876404,0.0012860107421876904,0.9990272216796896,-3690.6,-1728.8999999999999,148.79999999999998
76,0.0839541984732819,-3.9438854961832064,-1.716274809160308,0.0016141357421876404,0.0015301513671876904,0.9931678466796896,-3690.6,-1728.8999999999999,148.79999999999998
77,-1.0916183206106875,1.7965725190839694,-0.8918473282442774,0.0016141357421876404,-0.0006671142578123096,1.0004920654296896,-3690.6,-1728.8999999999999,148.79999999999998
78,-1.4427633587786264,-2.3713664122137406,-5.609404580152673,-0.00448937988281236,0.00421569824218769,1.0043983154296896,-3690.6,-1728.8999999999999,148.79999999999998
79,2.4198320610687016,-2.982053435114504,4.436396946564884,-0.0032686767578123596,-0.01604797363281231,0.9992713623046896,-3690.6,-1728.8999999999999,148.79999999999998
80,1.9007480916030528,-1.1499923664122138,-0.5865038167938952,-0.0018038330078123596,0.00397155761718769,1.0031776123046896,-3690.6,-1728.8999999999999,148.79999999999998
81,0.7709770992366407,1.6286335877862594,1.7035725190839672,-0.0010714111328123596,-0.00408508300781231,0.9843787841796896,-3690.6,-1728.8999999999999,148.79999999999998
82,0.41983206106870175,-3.287396946564886,4.253190839694654,0.0016141357421876404,-0.0006671142578123096,1.0109901123046896,-3690.6,-1728.8999999999999,148.79999999999998
83,-0.05345038167938987,-4.096557251908397,-7.349862595419849,0.0016141357421876404,-0.0004229736328123096,1.0070838623046896,-3690.6,-1728.8999999999999,148.79999999999998
84,0.11448854961832011,0.9263435114503815,3.4287633587786237,0.00576452636718764,0.00519226074218769,0.9990272216796896,-3690.6,-1728.8999999999999,148.79999999999998
85,-4.358793893129771,-3.501137404580153,-7.120854961832063,-0.0030245361328123596,0.0027508544921876904,1.0019569091796896,-3690.6,-1728.8999999999999,148.79999999999998
86,-2.526732824427482,0.34619083969465636,-0.3574961832061092,-0.0027803955078123596,0.0003094482421876904,0.9917030029296896,-3690.6,-1728.8999999999999,148.79999999999998
87,-1.3511603053435117,-2.3255648854961835,2.8028091603053413,0.0006375732421876404,-0.01751281738281231,1.0000037841796896,-3690.6,-1728.8999999999999,148.79999999999998
88,-0.007648854961832541,-0.2950305343511451,7.978381679389311,0.0006375732421876404,-0.01629211425781231,0.9956092529296896,-3690.6,-1728.8999999999999,148.79999999999998
89,0.7251755725190835,2.45306106870229,-2.281160305343513,0.00478796386718764,-0.0028643798828123096,1.0009803466796896,-3690.6,-1728.8999999999999,148.79999999999998
90,-0.23665648854961874,2.9110763358778624,-6.632305343511452,0.0006375732421876404,-0.0004229736328123096,0.9990272216796896,-3690.6,-1728.8999999999999,148.79999999999998
91,1.0305190839694651,-0.6614427480916031,0.5890687022900742,-0.0018038330078123596,0.0005535888671876904,1.0009803466796896,-3690.6,-1728.8999999999999,148.79999999999998
92,0.5114351145038163,-2.066022900763359,8.17685496183206,-0.0018038330078123596,-0.0033526611328123096,1.0002479248046896,-3690.6,-1728.8999999999999,148.79999999999998
93,-0.7099389312977105,3.308022900763359,-1.8384122137404608,0.00478796386718764,-0.00506164550781231,0.9917030029296896,-3690.6,-1728.8999999999999,148.79999999999998
94,-0.8931450381679393,-9.317931297709922,-8.647572519083973,-0.03036828613281236,0.01495788574218769,1.0122108154296896,-3690.6,-1728.8999999999999,148.79999999999998
95,-0.23665648854961874,-1.6996106870229009,3.505099236641219,-0.00497766113281236,0.03351257324218769,1.0222205810546896,-3690.6,-1728.8999999999999,148.79999999999998
96,0.022885496183205678,-1.3179312977099238,-3.044519083969468,0.01406530761718764,-0.02068664550781231,1.0046424560546896,-3690.6,-1728.8999999999999,148.79999999999998
97,-2.5725343511450385,2.5904656488549618,-0.7544427480916056,0.0023465576171876404,0.01129577636718769,1.0105018310546896,-3690.6,-1728.8999999999999,148.79999999999998
98,-0.1450534351145043,-2.783580152671756,-2.5101679389313007,0.01235632324218764,0.08868835449218769,0.9921912841796896,-3690.6,-1728.8999999999999,148.79999999999998
99,2.8473129770992363,1.0942824427480915,-1.2124580152671776,0.11855749511718763,-0.11638977050781231,0.9270057373046896,-3690.6,-1728.8999999999999,148.79999999999998
100,-1.6565038167938935,-0.6919770992366413,-4.891847328244277,-0.09360070800781237,0.01959655761718769,0.9721717529296896,-3690.6,-1728.8999999999999,148.79999999999998
101,0.06868702290076278,3.002679389312977,-28.41856488549618,-0.01449914550781236,0.02472351074218769,1.0224647216796896,-3690.6,-1728.8999999999999,148.79999999999998
102,1.0610534351145033,-2.7530458015267176,-48.632305343511455,-0.09823937988281237,-0.03094055175781231,0.9919471435546896,-3690.6,-1728.8999999999999,148.79999999999998
103,5.625938931297709,2.880541984732824,-87.57887022900765,-0.06601281738281237,0.0010418701171876904,1.0034217529296896,-3690.6,-1728.8999999999999,148.79999999999998
104,2.6793740458015263,-2.859916030534351,-86.72390839694657,-0.39657922363281234,0.6521649169921877,0.9560584716796896,-3690.6,-1728.8999999999999,148.79999999999998
105,4.969450381679389,8.544664122137405,-109.10558778625955,0.21499304199218763,0.07452819824218769,1.0205115966796896,-3690.6,-1728.8999999999999,148.79999999999998
106,11.427465648854962,0.7126030534351144,-128.78497709923664,0.05312780761718764,0.06354187011718769,0.9616737060546896,-3690.6,-1728.8999999999999,148.79999999999998
107,10.099221374045802,-1.165259541984733,-151.853679389313,0.08681921386718763,0.04181335449218769,0.9494666748046896,-3690.6,-1728.8999999999999,148.79999999999998
108,15.580137404580153,-3.3179312977099236,-160.72390839694657,-0.08212609863281237,-0.00506164550781231,1.0012244873046896,-3690.6,-1728.8999999999999,148.79999999999998
109,14.236625954198473,-0.37136641221374056,-164.67810687022902,-0.02450891113281236,0.00714538574218769,1.0371131591796896,-3690.6,-1728.8999999999999,148.79999999999998
110,16.007618320610685,-3.4553358778625953,-167.9605496183206,-0.01864953613281236,-0.04241516113281231,1.0249061279296896,-3690.6,-1728.8999999999999,148.79999999999998
111,16.664106870229006,-0.23396183206106877,-161.04451908396948,-0.01791711425781236,-0.06194641113281231,0.9824256591796896,-3690.6,-1728.8999999999999,148.79999999999998
112,13.137389312977099,-5.531671755725191,-153.3040610687023,-0.0015596923828123596,-0.04046203613281231,0.9819373779296896,-3690.6,-1728.8999999999999,148.79999999999998
113,11.885480916030534,-6.661442748091603,-150.54070229007635,-0.01181359863281236,-0.03924133300781231,1.0163612060546896,-3690.6,-1728.8999999999999,148.79999999999998
114,10.46563358778626,2.666801526717557,-150.12848854961834,-0.05600305175781236,-0.01043273925781231,1.0217322998046896,-3690.6,-1728.8999999999999,148.79999999999998
115,12.893114503816793,-5.608007633587786,-144.5712366412214,0.00454382324218764,-0.05340148925781231,1.0092811279296896,-3690.6,-1728.8999999999999,148.79999999999998
116,10.80151145038168,-5.775946564885496,-146.81551145038168,0.07290319824218763,-0.00408508300781231,0.9951209716796896,-3690.6,-1728.8999999999999,148.79999999999998
117,11.885480916030534,2.666801526717557,-153.0750534351145,-0.0018038330078123596,-0.07000305175781231,0.9790076904296896,-3690.6,-1728.8999999999999,148.79999999999998
118,12.63357251908397,5.598099236641222,-152.23535877862597,0.07778601074218763,-0.06048156738281231,0.9687537841796896,-3690.6,-1728.8999999999999,148.79999999999998
119,13.015251908396946,1.3232900763358777,-140.08268702290079,0.03042272949218764,-0.06951477050781231,1.0327186279296896,-3690.6,-1728.8999999999999,148.79999999999998
120,13.503801526717558,-0.7530458015267176,-139.2429923664122,-0.0030245361328123596,-0.05608703613281231,1.0441932373046896,-3690.6,-1728.8999999999999,148.79999999999998
121,9.152656488549619,-5.852282442748091,-119.059786259542,0.02602819824218764,0.06110046386718769,1.0644569091796896,-3690.6,-1728.8999999999999,148.79999999999998
122,10.12975572519084,-2.2492290076335877,-98.69337404580153,0.02602819824218764,-0.03045227050781231,1.0351600341796896,-3690.6,-1728.8999999999999,148.79999999999998
123,7.396931297709923,-2.4935038167938934,-84.84604580152673,0.00918249511718764,-0.07879211425781231,1.0131873779296896,-3690.6,-1728.8999999999999,148.79999999999998
124,7.045786259541984,2.636267175572519,-87.39566412213742,0.01772741699218764,-0.09466125488281231,0.9458045654296896,-3690.6,-1728.8999999999999,148.79999999999998
125,5.2137251908396935,-1.3179312977099238,-92.265893129771,-0.04819055175781236,0.03375671386718769,1.0456580810546896,-3690.6,-1728.8999999999999,148.79999999999998
126,8.862580152671756,0.6057328244274808,-95.74680916030535,-0.00644250488281236,0.01617858886718769,1.0551795654296896,-3690.6,-1728.8999999999999,148.79999999999998
127,5.381664122137404,0.20878625954198468,-105.97581679389315,0.03286413574218764,-0.07415344238281231,0.9626502685546896,-3690.6,-1728.8999999999999,148.79999999999998
128,8.083954198473283,2.6057328244274807,-108.9071145038168,0.05996374511718764,-0.01922180175781231,0.9577674560546896,-3690.6,-1728.8999999999999,148.79999999999998
129,8.603038167938932,3.537030534351145,-101.44146564885497,0.03481726074218764,0.03815124511718769,0.9538612060546896,-3690.6,-1728.8999999999999,148.79999999999998
130,7.6564732824427475,-5.3790000000000004,-91.5483358778626,-0.06552453613281237,0.09967468261718769,1.0249061279296896,-3690.6,-1728.8999999999999,148.79999999999998
131,5.122122137404579,2.636267175572519,-89.5483358778626,0.03261999511718764,-0.01043273925781231,0.9956092529296896,-3690.6,-1728.8999999999999,148.79999999999998
132,8.78624427480916,-5.653809160305344,-82.55596946564886,0.00771765136718764,0.03155944824218769,0.9834022216796896,-3690.6,-1728.8999999999999,148.79999999999998
133,3.4121984732824426,3.140083969465649,-77.13612213740458,-0.00741906738281236,0.00690124511718769,0.9953651123046896,-3690.6,-1728.8999999999999,148.79999999999998
134,7.564870229007633,-3.363732824427481,-86.06741984732825,-0.0015596923828123596,-0.04021789550781231,0.9890174560546896,-3690.6,-1728.8999999999999,148.79999999999998
135,6.083954198473282,4.254587786259542,-85.85367938931299,-0.01913781738281236,-0.00921203613281231,0.9860877685546896,-3690.6,-1728.8999999999999,148.79999999999998
136,4.786244274809159,-1.5011374045801527,-90.92238167938932,-0.01694055175781236,0.03180358886718769,1.0376014404296896,-3690.6,-1728.8999999999999,148.79999999999998
137,7.9923511450381675,-1.2873969465648856,-69.96054961832061,-0.05160852050781236,0.08307312011718769,1.0126990966796896,-3690.6,-1728.8999999999999,148.79999999999998
138,7.473267175572518,2.7584045801526718,-70.61703816793894,-0.08163781738281237,0.01666687011718769,1.0512733154296896,-3690.6,-1728.8999999999999,148.79999999999998
139,9.61067175572519,1.735503816793893,-82.95291603053435,-0.06283898925781237,0.0017742919921876904,1.0105018310546896,-3690.6,-1728.8999999999999,148.79999999999998
140,5.625938931297709,-2.7377786259541987,-85.1513893129771,-0.00937219238281236,-0.00774719238281231,1.0012244873046896,-3690.6,-1728.8999999999999,148.79999999999998
141,1.6259389312977095,-6.89045038167939,-74.05215267175574,-0.03549523925781236,0.04352233886718769,0.9838905029296896,-3690.6,-1728.8999999999999,148.79999999999998
142,9.351129770992367,0.8347404580152671,-73.02925190839696,-0.07211633300781237,-0.0031085205078123096,1.0117225341796896,-3690.6,-1728.8999999999999,148.79999999999998
143,1.7480763358778622,2.834740458015267,-56.082687022900764,-0.01425500488281236,0.12360046386718769,0.9370155029296896,-3690.6,-1728.8999999999999,148.79999999999998
144,3.824412213740458,-4.111824427480916,-41.97581679389313,-0.03964562988281236,0.06525085449218769,1.0053748779296896,-3690.6,-1728.8999999999999,148.79999999999998
145,0.7557099236641216,0.7584045801526716,-34.52543511450382,-0.0032686767578123596,-0.0013995361328123096,1.0119666748046896,-3690.6,-1728.8999999999999,148.79999999999998
146,2.4045648854961827,12.162984732824428,-39.441465648854965,-0.02035852050781236,-0.03142883300781231,1.0249061279296896,-3690.6,-1728.8999999999999,148.79999999999998
147,4.221358778625953,1.7965725190839694,-60.60177099236642,-0.01425500488281236,-0.01751281738281231,1.0280799560546896,-3690.6,-1728.8999999999999,148.79999999999998
148,10.511435114503817,-0.3866335877862596,-76.93764885496184,0.0013699951171876404,0.00934265136718769,1.0358924560546896,-3690.6,-1728.8999999999999,148.79999999999998
149,6.526702290076335,5.308022900763358,-107.27352671755726,-0.12851281738281237,-0.09417297363281231,1.0163612060546896,-3690.6,-1728.8999999999999,148.79999999999998
150,12.022885496183207,3.5828320610687023,-107.10558778625955,0.02187780761718764,0.06573913574218769,0.9816932373046896,-3690.6,-1728.8999999999999,148.79999999999998
151,7.259526717557251,0.6973358778625953,-72.15902290076336,0.02920202636718764,0.05353210449218769,0.9804725341796896,-3690.6,-1728.8999999999999,148.79999999999998
152,6.740442748091603,-5.531671755725191,-54.78497709923664,0.0006375732421876404,0.00641296386718769,0.9860877685546896,-3690.6,-1728.8999999999999,148.79999999999998
153,5.702274809160305,-10.401900763358778,-44.021618320610685,-0.02157922363281236,-0.01555969238281231,1.0148963623046896,-3690.6,-1728.8999999999999,148.79999999999998
154,3.717541984732824,-9.379,-24.15902290076336,0.05093054199218764,-0.06365539550781231,1.0075721435546896,-3690.6,-1728.8999999999999,148.79999999999998
155,-0.05345038167938987,1.2164198473282442,-12.47963358778626,0.05776647949218764,-0.09759094238281231,1.0073280029296896,-3690.6,-1728.8999999999999,148.79999999999998
156,-0.49619847328244315,4.544664122137404,14.344793893129768,0.08535437011718763,-0.05340148925781231,1.0244178466796896,-3690.6,-1728.8999999999999,148.79999999999998
157,2.297694656488549,-3.9896870229007635,18.48219847328244,0.03457312011718764,0.00958679199218769,0.9929237060546896,-3690.6,-1728.8999999999999,148.79999999999998
158,-1.6717709923664128,-3.287396946564886,19.67303816793893,-0.02914758300781236,0.01129577636718769,0.9924354248046896,-3690.6,-1728.8999999999999,148.79999999999998
159,-2.526732824427482,-7.775946564885496,13.825709923664121,0.0025906982421876404,0.01031921386718769,1.0090369873046896,-3690.6,-1728.8999999999999,148.79999999999998
160,0.16029007633587744,0.05611450381679381,12.894412213740456,-9.484863281235961e-05,-0.01433898925781231,0.9848670654296896,-3690.6,-1728.8999999999999,148.79999999999998
161,0.816778625954198,-5.730145038167939,19.10815267175572,-0.01523156738281236,-0.01067687988281231,1.0053748779296896,-3690.6,-1728.8999999999999,148.79999999999998
162,-2.3587938931297714,-2.951519083969466,23.917312977099236,-0.02426477050781236,0.01764343261718769,0.9985389404296896,-3690.6,-1728.8999999999999,148.79999999999998
163,0.6030381679389308,-0.8293816793893131,36.48219847328244,-0.05136437988281236,0.03448913574218769,0.9934119873046896,-3690.6,-1728.8999999999999,148.79999999999998
164,-1.1832213740458022,2.804206106870229,45.50509923664122,-0.05038781738281236,0.04547546386718769,0.9804725341796896,-3690.6,-1728.8999999999999,148.79999999999998
165,-7.519099236641222,-3.027854961832061,61.26082442748091,-0.05356164550781236,0.04278991699218769,0.9870643310546896,-3690.6,-1728.8999999999999,148.79999999999998
166,-5.778641221374047,3.2469541984732824,71.85624427480916,-0.07577844238281237,0.02960632324218769,0.9926795654296896,-3690.6,-1728.8999999999999,148.79999999999998
167,-10.145053435114503,1.7965725190839694,88.32952671755724,-0.03793664550781236,-0.00481750488281231,0.9860877685546896,-3690.6,-1728.8999999999999,148.79999999999998
168,-9.671770992366412,7.277488549618321,90.57380152671755,0.00967077636718764,-0.04436828613281231,1.0415076904296896,-3690.6,-1728.8999999999999,148.79999999999998
169,-5.290091603053436,2.850007633587786,83.76464122137403,0.02431921386718764,-0.05608703613281231,1.0022010498046896,-3690.6,-1728.8999999999999,148.79999999999998
170,-11.70230534351145,-5.684343511450382,78.10051908396946,0.04067663574218764,-0.03387023925781231,0.9650916748046896,-3690.6,-1728.8999999999999,148.79999999999998
171,-6.984748091603055,1.1706183206106868,76.29899236641221,0.02627233886718764,-0.0021319580078123096,1.0090369873046896,-3690.6,-1728.8999999999999,148.79999999999998
172,-8.068717557251908,-2.951519083969466,84.06998473282442,0.03872351074218764,0.04278991699218769,1.0029334716796896,-3690.6,-1728.8999999999999,148.79999999999998
173,-9.061083969465649,-2.615641221374046,96.63487022900763,0.01870397949218764,0.03668640136718769,1.0170936279296896,-3690.6,-1728.8999999999999,148.79999999999998
174,-10.542,-0.5393053435114504,135.0928854961832,0.01186804199218764,0.09039733886718769,0.9929237060546896,-3690.6,-1728.8999999999999,148.79999999999998
175,-15.656503816793894,3.888175572519084,159.3371603053435,-0.03525109863281236,0.07086608886718769,1.0075721435546896,-3690.6,-1728.8999999999999,148.79999999999998
176,-14.55726717557252,1.4148931297709924,179.39822900763357,-0.04379602050781236,0.03961608886718769,0.9655799560546896,-3690.6,-1728.8999999999999,148.79999999999998
177,-13.732839694656489,1.155351145038168,184.6959389312977,-0.00693078613281236,-0.01385070800781231,1.0251502685546896,-3690.6,-1728.8999999999999,148.79999999999998
178,-15.992381679389315,1.2622213740458015,119.87151145038167,-0.00937219238281236,-0.01287414550781231,0.9665565185546896,-3690.6,-1728.8999999999999,148.79999999999998
179,-6.954213740458015,11.735503816793894,128.23792366412215,-0.41830773925781234,-1.2440753173828123,0.3613319091796896,-3690.6,-1728.8999999999999,148.79999999999998
180,-20.511465648854962,3.308022900763359,128.86387786259542,-0.04257531738281236,-0.00945617675781231,0.9965858154296896,-3690.6,-1728.8999999999999,148.79999999999998
181,-6.542000000000001,-1.0278549618320612,126.48219847328244,0.03164343261718764,0.06549499511718769,0.9277381591796896,-3690.6,-1728.8999999999999,148.79999999999998
182,-12.221389312977099,3.6286335877862594,123.9783816793893,0.0023465576171876404,0.00616882324218769,0.9807166748046896,-3690.6,-1728.8999999999999,148.79999999999998
183,-10.877877862595419,4.6209999999999996,135.76464122137403,-0.01205773925781236,0.01984069824218769,1.0258826904296896,-3690.6,-1728.8999999999999,148.79999999999998
184,-12.435129770992367,-6.753045801526718,146.3600610687023,-0.04379602050781236,0.0015301513671876904,0.9638709716796896,-3690.6,-1728.8999999999999,148.79999999999998
185,-14.572534351145038,5.506496183206107,141.23029007633588,-0.03158898925781236,-0.01409484863281231,0.9880408935546896,-3690.6,-1728.8999999999999,148.79999999999998
186,-16.083984732824426,-7.577473282442748,151.87151145038166,-0.0003389892578123596,-0.05828430175781231,1.0097694091796896,-3690.6,-1728.8999999999999,148.79999999999998
187,-16.389328244274807,6.666801526717557,151.32189312977098,-0.02670617675781236,-0.06609680175781231,1.0593299560546896,-3690.6,-1728.8999999999999,148.79999999999998
188,-10.664137404580153,1.353824427480916,147.48983206106868,-0.04526086425781236,-0.03533508300781231,1.0051307373046896,-3690.6,-1728.8999999999999,148.79999999999998
189,-10.358793893129771,-3.4553358778625953,134.2837251908397,-0.02402062988281236,-0.02996398925781231,0.9873084716796896,-3690.6,-1728.8999999999999,148.79999999999998
190,-12.496198473282442,9.30802290076336,127.42876335877862,0.02236608886718764,-0.07097961425781231,1.0119666748046896,-3690.6,-1728.8999999999999,148.79999999999998
191,-8.801541984732824,-0.9057175572519085,115.15395419847327,0.04287390136718764,-0.06829406738281231,1.0039100341796896,-3690.6,-1728.8999999999999,148.79999999999998
192,-9.229022900763358,-3.6385419847328246,96.42112977099235,-0.00912805175781236,-0.06438781738281231,1.0317420654296896,-3690.6,-1728.8999999999999,148.79999999999998
193,-9.152687022900762,2.636267175572519,96.92494656488549,0.03261999511718764,0.05499694824218769,0.9665565185546896,-3690.6,-1728.8999999999999,148.79999999999998
194,-6.862610687022902,3.2622213740458013,87.0928854961832,0.00991491699218764,-0.02971984863281231,0.9726600341796896,-3690.6,-1728.8999999999999,148.79999999999998
195,-5.809175572519084,-5.653809160305344,68.92494656488549,-0.01620812988281236,-0.04192687988281231,0.9748572998046896,-3690.6,-1728.8999999999999,148.79999999999998
196,-7.641236641221375,-5.317931297709924,67.35242748091602,-0.03476281738281236,-0.0023760986328123096,0.9963416748046896,-3690.6,-1728.8999999999999,148.79999999999998
197,-6.633603053435115,0.10191603053435108,59.566167938931294,-0.01156945800781236,-0.02093078613281231,1.0107459716796896,-3690.6,-1728.8999999999999,148.79999999999998
198,-3.0916183206106878,6.010312977099237,36.95548091603053,0.0023465576171876404,-0.01555969238281231,0.9987830810546896,-3690.6,-1728.8999999999999,148.79999999999998
199,-3.396961832061069,4.010312977099237,20.818076335877862,-0.00790734863281236,-0.0009112548828123096,1.0043983154296896,-3690.6,-1728.8999999999999,148.79999999999998
200,-5.183221374045802,4.7278702290076335,27.79517557251908,-0.0013155517578123596,0.01324890136718769,0.9846229248046896,-3690.6,-1728.8999999999999,148.79999999999998
201,-3.870244274809161,1.185885496183206,34.375328244274804,0.00771765136718764,0.01520202636718769,0.9926795654296896,-3690.6,-1728.8999999999999,148.79999999999998
202,-2.862610687022902,-5.394267175572519,35.39822900763358,0.00674108886718764,-0.01092102050781231,1.0100135498046896,-3690.6,-1728.8999999999999,148.79999999999998
203,-2.603068702290077,-2.3255648854961835,51.09288549618321,-0.01279016113281236,-0.01189758300781231,0.9960975341796896,-3690.6,-1728.8999999999999,148.79999999999998
204,-3.04581679389313,-9.821748091603054,65.16922137404579,-0.02255578613281236,-0.01922180175781231,1.0222205810546896,-3690.6,-1728.8999999999999,148.79999999999998
205,-8.419862595419847,-2.2034274809160306,75.74937404580152,-0.04526086425781236,-0.00677062988281231,1.0429725341796896,-3690.6,-1728.8999999999999,148.79999999999998
206,-4.816809160305344,-3.745412213740458,80.49746564885496,-0.08017297363281237,-0.05120422363281231,1.0097694091796896,-3690.6,-1728.8999999999999,148.79999999999998
207,-5.1221526717557255,4.1782519083969465,73.29135877862595,-0.08456750488281237,-0.05974914550781231,1.0209998779296896,-3690.6,-1728.8999999999999,148.79999999999998
208,-10.37406106870229,1.5828320610687021,85.19975572519083,-0.05014367675781236,-0.04290344238281231,1.0034217529296896,-3690.6,-1728.8999999999999,148.79999999999998
209,-5.3358931297709935,7.002679389312977,102.31425954198473,-0.04452844238281236,-0.05511047363281231,0.9599647216796896,-3690.6,-1728.8999999999999,148.79999999999998
210,-13.53436641221374,1.0484809160305342,113.62723664122136,-0.02182336425781236,-0.11346008300781231,1.0022010498046896,-3690.6,-1728.8999999999999,148.79999999999998
211,-12.160320610687023,1.888175572519084,108.6196030534351,0.05898718261718764,-0.1713214111328123,1.0102576904296896,-3690.6,-1728.8999999999999,148.79999999999998
212,-5.519099236641222,-2.3713664122137406,100.2226564885496,0.03066687011718764,-0.04070617675781231,0.9978065185546896,-3690.6,-1728.8999999999999,148.79999999999998
213,-7.381694656488551,-3.8217480916030535,86.48219847328244,-0.01718469238281236,0.01446960449218769,0.9819373779296896,-3690.6,-1728.8999999999999,148.79999999999998
214,-7.763374045801528,6.269854961832061,72.3753282442748,-0.03110070800781236,0.01422546386718769,1.0105018310546896,-3690.6,-1728.8999999999999,148.79999999999998
215,-4.206122137404581,-3.149992366412214,49.8867786259542,-0.01694055175781236,0.03424499511718769,1.0029334716796896,-3690.6,-1728.8999999999999,148.79999999999998
216,-1.9618473282442752,-1.4095343511450382,41.38296183206107,0.01137976074218764,0.03082702636718769,1.0007362060546896,-3690.6,-1728.8999999999999,148.79999999999998
217,-5.259557251908397,3.9339770992366407,29.21502290076336,0.04262976074218764,0.06061218261718769,1.0095252685546896,-3690.6,-1728.8999999999999,148.79999999999998
218,-0.8320763358778629,-1.8217480916030535,33.1692213740458,0.04385046386718764,0.08111999511718769,0.9885291748046896,-3690.6,-1728.8999999999999,148.79999999999998
219,-3.4274961832061077,-5.363732824427481,26.86387786259542,0.01626257324218764,0.03766296386718769,0.9924354248046896,-3690.6,-1728.8999999999999,148.79999999999998
220,-0.09925190839694698,0.9721450381679388,23.67303816793893,-0.01498742675781236,0.00909851074218769,0.9948768310546896,-3690.6,-1728.8999999999999,148.79999999999998
221,2.1755572519083963,-1.2415954198473282,27.52036641221374,-0.02133508300781236,0.0029949951171876904,1.0075721435546896,-3690.6,-1728.8999999999999,148.79999999999998
222,-1.1832213740458022,-5.027854961832062,19.932580152671754,-0.01034875488281236,0.0007977294921876904,0.9982947998046896,-3690.6,-1728.8999999999999,148.79999999999998
223,-1.1374198473282446,-0.2034274809160306,18.894412213740456,0.0021024169921876404,0.01910827636718769,1.0022010498046896,-3690.6,-1728.8999999999999,148.79999999999998
224,-1.7481068702290081,1.1400839694656488,-10.693374045801527,0.03945593261718764,0.05060241699218769,1.0058631591796896,-3690.6,-1728.8999999999999,148.79999999999998
225,-3.6870381679389324,-2.1576259541984735,-14.907114503816796,0.05312780761718764,0.00714538574218769,0.9638709716796896,-3690.6,-1728.8999999999999,148.79999999999998
226,2.1144885496183203,-0.35609923664122145,-22.082687022900764,-0.05453820800781236,-0.04876281738281231,1.0964393310546896,-3690.6,-1728.8999999999999,148.79999999999998
227,0.7251755725190835,-2.9057175572519083,-36.66283969465649,0.0006375732421876404,-0.05755187988281231,1.0363807373046896,-3690.6,-1728.8999999999999,148.79999999999998
228,2.4045648854961827,-6.722511450381679,-30.34222900763359,-0.03354211425781236,0.02301452636718769,1.0161170654296896,-3690.6,-1728.8999999999999,148.79999999999998
229,-0.41986259541984783,-3.0583893129770994,-16.86131297709924,0.0035672607421876404,0.03131530761718769,1.0102576904296896,-3690.6,-1728.8999999999999,148.79999999999998
230,0.20609160305343466,-3.7759465648854964,-16.342229007633588,0.01894812011718764,0.03351257324218769,1.0070838623046896,-3690.6,-1728.8999999999999,148.79999999999998
231,1.1221221374045796,-2.4171679389312977,-2.7544427480916047,0.01797155761718764,0.05817077636718769,1.0034217529296896,-3690.6,-1728.8999999999999,148.79999999999998
232,-1.534366412213741,3.2622213740458013,3.15395419847328,0.01455358886718764,0.03424499511718769,1.0063514404296896,-3690.6,-1728.8999999999999,148.79999999999998
233,0.16029007633587744,-1.333198473282443,-4.449099236641223,0.00576452636718764,-0.0035968017578123096,1.0041541748046896,-3690.6,-1728.8999999999999,148.79999999999998
234,-0.09925190839694698,0.9721450381679388,1.627236641221372,-0.00424523925781236,-0.0001788330078123096,1.0041541748046896,-3690.6,-1728.8999999999999,148.79999999999998
235,-0.49619847328244315,-0.4782366412213741,-0.6933740458015292,-0.00717492675781236,0.00543640136718769,1.0046424560546896,-3690.6,-1728.8999999999999,148.79999999999998
236,-2.4503969465648856,-0.7835801526717558,2.695938931297708,-0.0013155517578123596,-0.01751281738281231,1.0022010498046896,-3690.6,-1728.8999999999999,148.79999999999998
237,1.198458015267175,4.330923664122137,-6.754442748091605,0.0038114013671876404,0.01153991699218769,0.9982947998046896,-3690.6,-1728.8999999999999,148.79999999999998
238,0.4656335877862591,-1.8217480916030535,5.352427480916028,0.0013699951171876404,0.0012860107421876904,1.0058631591796896,-3690.6,-1728.8999999999999,148.79999999999998
239,0.2824274809160301,-1.71487786259542,0.2379236641221354,0.0028348388671876404,0.0005535888671876904,0.9975623779296896,-3690.6,-1728.8999999999999,148.79999999999998
240,-1.0916183206106875,-1.2873969465648856,-3.9758167938931317,0.0001492919921876404,-0.0011553955078123096,1.0114783935546896,-3690.6,-1728.8999999999999,148.79999999999998
241,0.9389160305343507,4.224053435114504,3.276091603053433,-0.0032686767578123596,0.0007977294921876904,1.0019569091796896,-3690.6,-1728.8999999999999,148.79999999999998
242,-1.9618473282442752,2.330923664122137,-9.105587786259544,0.00991491699218764,0.0015301513671876904,0.9978065185546896,-3690.6,-1728.8999999999999,148.79999999999998
243,-2.267190839694657,7.308022900763358,3.1386870229007613,0.0016141357421876404,0.00421569824218769,0.9995155029296896,-3690.6,-1728.8999999999999,148.79999999999998
244,-0.5725343511450387,-2.279763358778626,4.390595419847326,0.0038114013671876404,0.0029949951171876904,1.0114783935546896,-3690.6,-1728.8999999999999,148.79999999999998
245,-1.7939083969465652,1.6286335877862594,-0.7086412213740481,0.0033231201171876404,0.0027508544921876904,0.9985389404296896,-3690.6,-1728.8999999999999,148.79999999999998
246,1.5954045801526713,1.0484809160305342,6.176854961832059,0.0030789794921876404,-0.0001788330078123096,1.0065955810546896,-3690.6,-1728.8999999999999,148.79999999999998
247,-1.320625954198474,-3.027854961832061,2.2073893129770967,-0.0030245361328123596,0.01349304199218769,1.0007362060546896,-3690.6,-1728.8999999999999,148.79999999999998
248,-0.5267328244274814,-0.4171679389312978,6.268458015267173,-0.0037569580078123596,-0.0031085205078123096,0.9997596435546896,-3690.6,-1728.8999999999999,148.79999999999998
249,-1.320625954198474,0.5904656488549618,-0.5254351145038187,-0.0003389892578123596,0.0003094482421876904,0.9963416748046896,-3690.6,-1728.8999999999999,148.79999999999998
250,-0.49619847328244315,1.4148931297709924,-2.4490992366412234,0.0011258544921876404,-0.01726867675781231,1.0087928466796896,-3690.6,-1728.8999999999999,148.79999999999998
251,2.7557099236641216,1.5522977099236641,1.1081526717557226,0.0023465576171876404,0.0032391357421876904,1.0019569091796896,-3690.6,-1728.8999999999999,148.79999999999998
252,-0.3129923664122143,-0.2034274809160306,5.6730381679389295,0.0003934326171876404,0.00470397949218769,0.9821815185546896,-3690.6,-1728.8999999999999,148.79999999999998
253,-1.320625954198474,-2.859916030534351,-0.4643664122137423,-0.0013155517578123596,-0.0006671142578123096,1.0075721435546896,-3690.6,-1728.8999999999999,148.79999999999998
254,0.022885496183205678,0.49886259541984723,-0.08268702290076568,-0.00473352050781236,0.0029949951171876904,1.0051307373046896,-3690.6,-1728.8999999999999,148.79999999999998
255,-1.5801679389312981,-1.0278549618320612,-1.1361221374045822,-0.00741906738281236,-0.0031085205078123096,0.9951209716796896,-3690.6,-1728.8999999999999,148.79999999999998
256,0.11448854961832011,0.13245038167938925,1.2608244274809142,-0.0030245361328123596,0.0003094482421876904,0.9941444091796896,-3690.6,-1728.8999999999999,148.79999999999998
257,1.381664122137404,-5.684343511450382,-7.426198473282445,-0.0018038330078123596,0.0027508544921876904,0.9965858154296896,-3690.6,-1728.8999999999999,148.79999999999998
258,-0.1450534351145043,1.4759618320610686,-4.052152671755727,-0.0020479736328123596,-0.0004229736328123096,0.9978065185546896,-3690.6,-1728.8999999999999,148.79999999999998
259,1.0763206106870224,-4.066022900763358,-4.891847328244277,0.0023465576171876404,0.0034832763671876904,0.9990272216796896,-3690.6,-1728.8999999999999,148.79999999999998
260,2.7557099236641216,-0.7683129770992367,-2.372763358778628,-0.0025362548828123596,-0.0013995361328123096,1.0009803466796896,-3690.6,-1728.8999999999999,148.79999999999998
261,-1.320625954198474,-1.1957938931297711,2.6348702290076313,-0.0015596923828123596,-0.0001788330078123096,0.9992713623046896,-3690.6,-1728.8999999999999,148.79999999999998
262,0.11448854961832011,-2.233961832061069,1.9020458015267154,-0.0008272705078123596,0.01349304199218769,1.0012244873046896,-3690.6,-1728.8999999999999,148.79999999999998
263,-0.7557404580152676,-0.4935038167938932,-4.052152671755727,0.0030789794921876404,0.0007977294921876904,0.9982947998046896,-3690.6,-1728.8999999999999,148.79999999999998
264,-1.931312977099237,-2.7072442748091605,2.604335877862593,-9.484863281235961e-05,-0.0006671142578123096,1.0031776123046896,-3690.6,-1728.8999999999999,148.79999999999998
265,0.5877709923664117,5.094282442748091,-3.1055877862595436,-0.0027803955078123596,0.0005535888671876904,1.0014686279296896,-3690.6,-1728.8999999999999,148.79999999999998
266,-0.5267328244274814,3.6744351145038165,-4.571236641221376,0.0011258544921876404,-0.0001788330078123096,1.0029334716796896,-3690.6,-1728.8999999999999,148.79999999999998
267,-3.9160458015267183,2.498862595419847,4.543267175572517,0.0023465576171876404,-0.01702453613281231,1.0043983154296896,-3690.6,-1728.8999999999999,148.79999999999998
268,4.022885496183205,5.598099236641222,3.5356335877862572,-0.04501672363281236,-0.01531555175781231,1.0046424560546896,-3690.6,-1728.8999999999999,148.79999999999998
269,0.06868702290076278,-3.4706030534351147,-1.609404580152673,-0.00693078613281236,-0.07928039550781231,0.9643592529296896,-3690.6,-1728.8999999999999,148.79999999999998
270,0.4656335877862591,-2.142358778625954,-9.136122137404584,-0.00546594238281236,-0.02093078613281231,1.0036658935546896,-3690.6,-1728.8999999999999,148.79999999999998
271,-0.6641374045801531,-5.852282442748091,-8.754442748091606,0.03530554199218764,0.00983093261718769,0.9985389404296896,-3690.6,-1728.8999999999999,148.79999999999998
272,0.8931145038167934,-3.027854961832061,-5.487267175572522,0.02212194824218764,0.0027508544921876904,1.0688514404296896,-3690.6,-1728.8999999999999,148.79999999999998
273,2.3740305343511445,0.4377938931297709,5.6730381679389295,0.02969030761718764,0.03522155761718769,1.0109901123046896,-3690.6,-1728.8999999999999,148.79999999999998
274,-0.3587938931297714,-2.9362519083969465,-6.0063511450381695,-0.00400109863281236,0.01520202636718769,0.9980506591796896,-3690.6,-1728.8999999999999,148.79999999999998
275,2.4198320610687016,4.132450381679389,4.497465648854959,-0.00619836425781236,-0.01116516113281231,1.0048865966796896,-3690.6,-1728.8999999999999,148.79999999999998
276,2.1144885496183203,-0.7377786259541985,0.8944122137404555,-0.0013155517578123596,-0.01458312988281231,0.9909705810546896,-3690.6,-1728.8999999999999,148.79999999999998
277,-0.09925190839694698,-3.4095343511450382,-4.17429007633588,-0.01816125488281236,0.03155944824218769,1.0173377685546896,-3690.6,-1728.8999999999999,148.79999999999998
278,-2.0076488549618325,2.468328244274809,-5.090320610687026,0.02261022949218764,-0.02019836425781231,1.0102576904296896,-3690.6,-1728.8999999999999,148.79999999999998
279,-0.4045954198473287,0.30038931297709914,-5.349862595419849,-0.0005831298828123596,-0.00945617675781231,0.9838905029296896,-3690.6,-1728.8999999999999,148.79999999999998
280,-0.05345038167938987,4.712603053435115,-2.632305343511452,0.0001492919921876404,0.00787780761718769,0.9973182373046896,-3690.6,-1728.8999999999999,148.79999999999998
281,0.5419694656488545,-1.1347251908396947,3.871511450381677,0.00942663574218764,0.01324890136718769,1.0078162841796896,-3690.6,-1728.8999999999999,148.79999999999998
282,4.068687022900763,1.888175572519084,-2.0216183206106892,0.0006375732421876404,0.00519226074218769,0.9978065185546896,-3690.6,-1728.8999999999999,148.79999999999998
283,0.022885496183205678,-0.15762595419847336,-4.693374045801529,0.0035672607421876404,0.00397155761718769,1.0019569091796896,-3690.6,-1728.8999999999999,148.79999999999998
284,-1.4122290076335882,0.9721450381679388,2.894412213740456,0.0008817138671876404,0.0012860107421876904,1.0078162841796896,-3690.6,-1728.8999999999999,148.79999999999998
285,1.885480916030534,-2.2492290076335877,-3.3193282442748115,0.0008817138671876404,-0.01409484863281231,1.0029334716796896,-3690.6,-1728.8999999999999,148.79999999999998
286,-1.4580305343511457,4.9568778625954195,1.0165496183206084,-0.00400109863281236,-0.0013995361328123096,1.0039100341796896,-3690.6,-1728.8999999999999,148.79999999999998
287,2.7099083969465645,-2.8751832061068705,-1.6246717557251928,0.0016141357421876404,-0.01531555175781231,1.0014686279296896,-3690.6,-1728.8999999999999,148.79999999999998
288,-2.7099389312977102,-5.959152671755725,4.573801526717555,-0.00497766113281236,0.0005535888671876904,1.0029334716796896,-3690.6,-1728.8999999999999,148.79999999999998
289,-0.3129923664122143,-0.08129007633587793,-0.14375572519084212,-0.00473352050781236,-0.01702453613281231,0.9946326904296896,-3690.6,-1728.8999999999999,148.79999999999998
290,0.16029007633587744,-2.111824427480916,-7.731541984732826,0.0003934326171876404,0.0017742919921876904,1.0007362060546896,-3690.6,-1728.8999999999999,148.79999999999998
291,0.38929770992366364,2.2087862595419847,0.6348702290076318,-9.484863281235961e-05,0.0005535888671876904,0.9841346435546896,-3690.6,-1728.8999999999999,148.79999999999998
292,-2.832076335877863,-3.2415954198473282,7.611969465648853,0.0001492919921876404,0.00714538574218769,1.0058631591796896,-3690.6,-1728.8999999999999,148.79999999999998
293,-2.404595419847329,1.369091603053435,1.9173129770992343,-0.0020479736328123596,0.01300476074218769,0.9997596435546896,-3690.6,-1728.8999999999999,148.79999999999998
294,-1.4122290076335882,7.017946564885496,-1.9147480916030561,-0.0020479736328123596,-0.0006671142578123096,1.0026893310546896,-3690.6,-1728.8999999999999,148.79999999999998
295,-2.190854961832062,-1.2873969465648856,0.16158778625954007,-0.0037569580078123596,0.0025067138671876904,1.0046424560546896,-3690.6,-1728.8999999999999,148.79999999999998
296,0.0839541984732819,1.735503816793893,-5.792610687022903,-0.0015596923828123596,-0.0001788330078123096,0.9841346435546896,-3690.6,-1728.8999999999999,148.79999999999998
297,-2.6641374045801536,0.30038931297709914,-0.8002442748091623,-0.0015596923828123596,0.0027508544921876904,0.9858436279296896,-3690.6,-1728.8999999999999,148.79999999999998
298,1.381664122137404,-0.18816030534351152,-1.3040610687022927,-0.00522180175781236,0.0029949951171876904,1.0024451904296896,-3690.6,-1728.8999999999999,148.79999999999998
299,-0.43512977099236694,-1.2568625954198474,5.871511450381677,-0.0030245361328123596,0.00421569824218769,1.0031776123046896,-3690.6,-1728.8999999999999,148.79999999999998
300,-3.625969465648856,-0.8599160305343513,-0.5712366412213763,-0.0020479736328123596,0.0020184326171876904,0.9992713623046896,-3690.6,-1728.8999999999999,148.79999999999998
301,-21.274824427480915,-5.943885496183206,-30.510167938931296,-0.11337609863281237,-0.02556945800781231,1.0161170654296896,-3690.6,-1728.8999999999999,148.79999999999998
302,1.1373893129770987,4.666801526717557,-22.67810687022901,-0.05356164550781236,-0.04632141113281231,1.0095252685546896,-3690.6,-1728.8999999999999,148.79999999999998
303,-6.0076488549618325,2.636267175572519,-19.70100763358779,0.0023465576171876404,-0.02068664550781231,1.0036658935546896,-3690.6,-1728.8999999999999,148.79999999999998
304,-0.02291603053435165,3.308022900763359,-17.807877862595422,0.04311804199218764,-0.04705383300781231,1.0109901123046896,-3690.6,-1728.8999999999999,148.79999999999998
305,3.595404580152671,-5.440068702290076,-15.227725190839696,0.02407507324218764,-0.02434875488281231,0.9997596435546896,-3690.6,-1728.8999999999999,148.79999999999998
306,-16.282458015267174,6.819473282442748,-16.49490076335878,0.02138952636718764,0.00421569824218769,0.9963416748046896,-3690.6,-1728.8999999999999,148.79999999999998
307,5.748076335877862,15.216419847328245,4.024183206106867,0.05605749511718764,0.00445983886718769,0.9809608154296896,-3690.6,-1728.8999999999999,148.79999999999998
308,16.557236641221373,18.666801526717556,51.52036641221374,0.03945593261718764,0.08063171386718769,1.0395545654296896,-3690.6,-1728.8999999999999,148.79999999999998
309,0.2518931297709919,3.7049694656488548,-2.9987175572519105,-0.00644250488281236,0.04596374511718769,1.0134315185546896,-3690.6,-1728.8999999999999,148.79999999999998
310,-1.8244427480916035,-0.44770229007633594,-0.7849770992366434,-0.01474328613281236,-0.00994445800781231,1.0170936279296896,-3690.6,-1728.8999999999999,148.79999999999998
311,-1.71757251908397,2.1782519083969465,-0.265893129770995,-0.01254602050781236,0.00690124511718769,1.0158729248046896,-3690.6,-1728.8999999999999,148.79999999999998
312,1.2442595419847324,-5.165259541984733,-5.7773435114503835,0.0035672607421876404,0.02374694824218769,1.0097694091796896,-3690.6,-1728.8999999999999,148.79999999999998
313,6.969450381679389,-4.661442748091603,6.008916030534349,-0.0032686767578123596,0.00665710449218769,1.0095252685546896,-3690.6,-1728.8999999999999,148.79999999999998
314,-2.312992366412214,-2.447702290076336,-5.639938931297713,0.01113562011718764,-0.01140930175781231,1.0053748779296896,-3690.6,-1728.8999999999999,148.79999999999998
315,-1.3511603053435117,-4.447702290076336,-4.84604580152672,0.00600866699218764,-0.00554992675781231,1.0043983154296896,-3690.6,-1728.8999999999999,148.79999999999998
316,-0.23665648854961874,-2.1728931297709924,-3.5178015267175597,0.01430944824218764,-0.00408508300781231,0.9970740966796896,-3690.6,-1728.8999999999999,148.79999999999998
317,-1.8397099236641228,-4.982053435114504,6.619603053435112,0.01723913574218764,-0.0009112548828123096,1.0002479248046896,-3690.6,-1728.8999999999999,148.79999999999998
318,-1.5649007633587793,-1.1957938931297711,5.5661679389312955,0.01186804199218764,0.00616882324218769,1.0007362060546896,-3690.6,-1728.8999999999999,148.79999999999998
319,0.6793740458015263,3.0942824427480917,3.505099236641219,-0.0010714111328123596,-0.00432922363281231,1.0100135498046896,-3690.6,-1728.8999999999999,148.79999999999998
320,0.4656335877862591,1.0942824427480915,6.650137404580151,0.0030789794921876404,-0.01653625488281231,0.9960975341796896,-3690.6,-1728.8999999999999,148.79999999999998
321,0.23662595419847277,-1.1957938931297711,0.5738015267175554,0.0033231201171876404,-0.00530578613281231,0.9985389404296896,-3690.6,-1728.8999999999999,148.79999999999998
322,0.06868702290076278,-1.0736564885496183,5.82570992366412,0.00454382324218764,-0.0011553955078123096,0.9831580810546896,-3690.6,-1728.8999999999999,148.79999999999998
323,-1.7939083969465652,-1.1499923664122138,0.6348702290076318,0.00503210449218764,0.0015301513671876904,1.0065955810546896,-3690.6,-1728.8999999999999,148.79999999999998
324,-0.5267328244274814,-0.8599160305343513,5.963114503816792,0.00552038574218764,0.0020184326171876904,1.0012244873046896,-3690.6,-1728.8999999999999,148.79999999999998
325,-0.4045954198473287,-2.0812900763358777,-5.349862595419849,0.0035672607421876404,-0.00432922363281231,0.9982947998046896,-3690.6,-1728.8999999999999,148.79999999999998
326,-2.3587938931297714,-8.585106870229007,-1.1971908396946587,0.0025906982421876404,0.01349304199218769,0.9992713623046896,-3690.6,-1728.8999999999999,148.79999999999998
327,-2.05345038167939,-4.340832061068703,5.840977099236639,0.00625280761718764,-0.00408508300781231,1.0085487060546896,-3690.6,-1728.8999999999999,148.79999999999998
328,-3.534366412213741,-4.7072442748091605,-0.7697099236641245,0.00845007324218764,-0.00579406738281231,1.0043983154296896,-3690.6,-1728.8999999999999,148.79999999999998
329,0.8931145038167934,0.3919923664122137,-3.1971908396946587,0.01186804199218764,0.00421569824218769,1.0004920654296896,-3690.6,-1728.8999999999999,148.79999999999998
330,0.3434961832061064,-0.34083206106870234,-1.7468091603053457,0.01064733886718764,0.0005535888671876904,0.9970740966796896,-3690.6,-1728.8999999999999,148.79999999999998
331,-2.38932824427481,-1.6996106870229009,-6.34222900763359,0.00771765136718764,-0.0035968017578123096,0.9995155029296896,-3690.6,-1728.8999999999999,148.79999999999998
332,0.5419694656488545,-9.745412213740456,-1.594137404580155,0.0038114013671876404,-0.0033526611328123096,0.9885291748046896,-3690.6,-1728.8999999999999,148.79999999999998
333,-2.8778778625954207,-12.70724427480916,-3.8078778625954213,0.01015905761718764,0.00616882324218769,0.9951209716796896,-3690.6,-1728.8999999999999,148.79999999999998
334,0.03815267175572479,-11.638541984732823,-4.678106870229009,0.01723913574218764,-0.01043273925781231,1.0095252685546896,-3690.6,-1728.8999999999999,148.79999999999998
335,-1.6107022900763364,-15.19579389312977,0.726473282442746,0.01235632324218764,-0.0035968017578123096,1.0048865966796896,-3690.6,-1728.8999999999999,148.79999999999998
336,0.22135877862595366,-8.829381679389313,3.7035725190839672,0.02016882324218764,-0.00701477050781231,1.0063514404296896,-3690.6,-1728.8999999999999,148.79999999999998
337,-1.3053587786259546,-1.7454122137404582,-6.250625954198475,0.01308874511718764,0.0015301513671876904,0.9982947998046896,-3690.6,-1728.8999999999999,148.79999999999998
338,-8.114519083969466,-0.37136641221374056,3.795175572519082,0.04165319824218764,-0.00994445800781231,1.0083045654296896,-3690.6,-1728.8999999999999,148.79999999999998
339,-0.1450534351145043,-7.531671755725191,6.054717557251906,0.02407507324218764,-0.00628234863281231,1.0014686279296896,-3690.6,-1728.8999999999999,148.79999999999998
340,-1.0458167938931304,-6.9362519083969465,3.6883053435114483,0.02358679199218764,-0.00628234863281231,0.9987830810546896,-3690.6,-1728.8999999999999,148.79999999999998
341,-2.526732824427482,-8.264496183206106,-1.044519083969468,0.01919226074218764,-0.01116516113281231,1.0051307373046896,-3690.6,-1728.8999999999999,148.79999999999998
342,-1.1832213740458022,-4.081290076335878,-7.090320610687026,0.03115515136718764,-0.00481750488281231,1.0068397216796896,-3690.6,-1728.8999999999999,148.79999999999998
343,-0.6183358778625958,-0.15762595419847336,1.5509007633587766,0.03652624511718764,-0.00750305175781231,1.0075721435546896,-3690.6,-1728.8999999999999,148.79999999999998
344,0.8625801526717553,-1.7759465648854962,0.4516641221374025,0.03408483886718764,-0.01018859863281231,0.9973182373046896,-3690.6,-1728.8999999999999,148.79999999999998
345,0.6793740458015263,-3.1041908396946565,1.1386870229007613,0.03335241699218764,-0.01018859863281231,1.0073280029296896,-3690.6,-1728.8999999999999,148.79999999999998
346,-1.0916183206106875,-5.012587786259542,-1.7620763358778655,0.03164343261718764,-0.00921203613281231,1.0053748779296896,-3690.6,-1728.8999999999999,148.79999999999998
347,0.5114351145038163,-1.1957938931297711,-6.632305343511452,0.03335241699218764,-0.00994445800781231,1.0051307373046896,-3690.6,-1728.8999999999999,148.79999999999998
348,-1.0916183206106875,2.6820687022900764,1.6883053435114483,0.03261999511718764,-0.00823547363281231,0.9980506591796896,-3690.6,-1728.8999999999999,148.79999999999998
349,-3.305358778625955,1.78130534351145,-2.9071145038167954,0.03164343261718764,-0.01507141113281231,1.0000037841796896,-3690.6,-1728.8999999999999,148.79999999999998
350,-2.618335877862596,7.048480916030535,2.2073893129770967,0.03310827636718764,-0.01116516113281231,1.0014686279296896,-3690.6,-1728.8999999999999,148.79999999999998
351,-0.49619847328244315,-1.4095343511450382,-4.097954198473285,0.03139929199218764,-0.01409484863281231,1.0068397216796896,-3690.6,-1728.8999999999999,148.79999999999998
352,-0.7099389312977105,11.170618320610687,1.9936488549618296,0.02627233886718764,-0.01116516113281231,1.0026893310546896,-3690.6,-1728.8999999999999,148.79999999999998
353,-0.28245801526717607,4.972145038167938,-0.11322137404580346,0.02676062011718764,-0.00945617675781231,0.9995155029296896,-3690.6,-1728.8999999999999,148.79999999999998
354,4.190824427480916,4.4072595419847325,1.5356335877862577,0.03945593261718764,-0.00896789550781231,1.0048865966796896,-3690.6,-1728.8999999999999,148.79999999999998
355,2.7099083969465645,-1.5316717557251909,-3.3193282442748115,0.02676062011718764,-0.00970031738281231,1.0107459716796896,-3690.6,-1728.8999999999999,148.79999999999998
356,5.015251908396946,6.346190839694656,-1.9605496183206137,0.02212194824218764,-0.00774719238281231,1.0073280029296896,-3690.6,-1728.8999999999999,148.79999999999998
357,4.007618320610686,7.353824427480916,6.1157862595419825,0.01992468261718764,-0.01678039550781231,1.0007362060546896,-3690.6,-1728.8999999999999,148.79999999999998
358,5.045786259541984,-0.14235877862595425,2.5432671755725167,0.02090124511718764,-0.00994445800781231,0.9936561279296896,-3690.6,-1728.8999999999999,148.79999999999998
359,5.961816793893129,10.880541984732826,-7.075053435114506,0.02163366699218764,-0.00677062988281231,1.0022010498046896,-3690.6,-1728.8999999999999,148.79999999999998
360,3.839679389312977,3.338557251908397,4.237923664122135,0.01626257324218764,-0.00408508300781231,0.9980506591796896,-3690.6,-1728.8999999999999,148.79999999999998
361,6.923648854961831,-0.1270916030534352,1.5814351145038144,0.01455358886718764,-0.00506164550781231,1.0000037841796896,-3690.6,-1728.8999999999999,148.79999999999998
362,4.923648854961831,-1.6996106870229009,-0.1742900763358799,0.02163366699218764,-0.00774719238281231,0.9997596435546896,-3690.6,-1728.8999999999999,148.79999999999998
363,3.702274809160305,-4.920984732824428,-2.15902290076336,0.01235632324218764,-0.0021319580078123096,1.0019569091796896,-3690.6,-1728.8999999999999,148.79999999999998
364,2.1602900763358774,2.498862595419847,3.627236641221372,0.01894812011718764,-0.0013995361328123096,1.0024451904296896,-3690.6,-1728.8999999999999,148.79999999999998
365,4.969450381679389,-2.4935038167938934,6.2226564885496165,0.01650671386718764,-0.0033526611328123096,1.0002479248046896,-3690.6,-1728.8999999999999,148.79999999999998
366,2.7099083969465645,-7.638541984732824,-1.7773435114503835,-0.01108117675781236,-0.00603820800781231,1.0043983154296896,-3690.6,-1728.8999999999999,148.79999999999998
367,4.633572519083969,-5.638541984732824,-3.930015267175574,0.01723913574218764,-0.0004229736328123096,1.0065955810546896,-3690.6,-1728.8999999999999,148.79999999999998
368,0.6335725190839689,-0.23396183206106877,2.4669312977099214,0.0033231201171876404,-0.00896789550781231,0.9965858154296896,-3690.6,-1728.8999999999999,148.79999999999998
369,0.20609160305343466,0.31565648854961825,-1.945282442748094,0.00820593261718764,-0.01653625488281231,1.0019569091796896,-3690.6,-1728.8999999999999,148.79999999999998
370,0.5114351145038163,3.338557251908397,-9.136122137404584,0.03164343261718764,0.01056335449218769,1.0022010498046896,-3690.6,-1728.8999999999999,148.79999999999998
371,5.6564732824427475,-1.8675496183206108,-0.5407022900763376,0.07021765136718763,-0.01726867675781231,1.0105018310546896,-3690.6,-1728.8999999999999,148.79999999999998
372,2.2366259541984728,-1.88281679389313,-5.044519083969468,0.04946569824218764,0.00690124511718769,0.9589881591796896,-3690.6,-1728.8999999999999,148.79999999999998
373,-0.5725343511450387,1.4759618320610686,0.06998473282442497,0.01406530761718764,0.03717468261718769,0.9926795654296896,-3690.6,-1728.8999999999999,148.79999999999998
374,4.236625954198473,-2.1728931297709924,-6.983450381679391,0.02480749511718764,-0.01311828613281231,1.0053748779296896,-3690.6,-1728.8999999999999,148.79999999999998
375,0.20609160305343466,4.911076335877863,-3.4567328244274824,0.01089147949218764,-0.00823547363281231,0.9907264404296896,-3690.6,-1728.8999999999999,148.79999999999998
376,-2.7099389312977102,2.621,-2.9834503816793907,0.01089147949218764,0.00592468261718769,1.0002479248046896,-3690.6,-1728.8999999999999,148.79999999999998
377,-0.007648854961832541,0.9721450381679388,-1.166656488549621,0.02090124511718764,0.00519226074218769,0.9824256591796896,-3690.6,-1728.8999999999999,148.79999999999998
378,-0.1297862595419852,-2.9057175572519083,-5.578870229007635,0.04116491699218764,0.0020184326171876904,0.9975623779296896,-3690.6,-1728.8999999999999,148.79999999999998
379,-4.267190839694657,1.537030534351145,4.970748091603051,0.02285437011718764,-0.0006671142578123096,1.0026893310546896,-3690.6,-1728.8999999999999,148.79999999999998
380,-0.6183358778625958,0.7584045801526716,-4.2200916030534374,0.01601843261718764,0.0005535888671876904,1.0014686279296896,-3690.6,-1728.8999999999999,148.79999999999998
381,-4.526732824427482,-2.111824427480916,-4.036885496183209,0.01919226074218764,0.0032391357421876904,0.9992713623046896,-3690.6,-1728.8999999999999,148.79999999999998
382,-4.206122137404581,-0.798847328244275,-2.235358778625957,0.02163366699218764,0.01349304199218769,0.9997596435546896,-3690.6,-1728.8999999999999,148.79999999999998
383,-3.7939083969465655,-1.1957938931297711,-2.5407022900763385,0.01919226074218764,-0.0023760986328123096,0.9953651123046896,-3690.6,-1728.8999999999999,148.79999999999998
384,-4.297725190839695,-7.745412213740458,7.123419847328242,0.02187780761718764,-0.0001788330078123096,0.9946326904296896,-3690.6,-1728.8999999999999,148.79999999999998
385,-2.9084122137404584,-5.867549618320611,-7.5483358778625975,0.02138952636718764,-0.01678039550781231,0.9951209716796896,-3690.6,-1728.8999999999999,148.79999999999998
386,-3.641236641221375,-6.737778625954198,0.3447938931297685,0.01528601074218764,-0.0028643798828123096,0.9836463623046896,-3690.6,-1728.8999999999999,148.79999999999998
387,-6.3435267175572525,-6.905717557251909,0.20738931297709673,0.02358679199218764,-0.00579406738281231,1.0019569091796896,-3690.6,-1728.8999999999999,148.79999999999998
388,-5.732839694656489,-7.455335877862596,-0.7391755725190858,0.02993444824218764,-0.00652648925781231,1.0041541748046896,-3690.6,-1728.8999999999999,148.79999999999998
389,-5.946580152671756,-0.3255648854961833,-0.3574961832061092,0.01333288574218764,-0.00725891113281231,0.9997596435546896,-3690.6,-1728.8999999999999,148.79999999999998
390,-9.88551145038168,2.28512213740458,-4.922381679389315,0.02969030761718764,-0.00432922363281231,1.0002479248046896,-3690.6,-1728.8999999999999,148.79999999999998
391,-12.236656488549619,-2.0507557251908395,-2.1284885496183223,0.02846960449218764,-0.01214172363281231,1.0080604248046896,-3690.6,-1728.8999999999999,148.79999999999998
392,-7.244290076335878,1.6744351145038168,3.1844885496183184,0.03237585449218764,-0.01629211425781231,1.0263709716796896,-3690.6,-1728.8999999999999,148.79999999999998
393,-8.55726717557252,6.208786259541984,8.024183206106867,0.02749304199218764,-0.01140930175781231,1.0114783935546896,-3690.6,-1728.8999999999999,148.79999999999998
394,-6.465664122137405,-1.6232748091603055,2.3295267175572496,0.02651647949218764,-0.01238586425781231,1.0102576904296896,-3690.6,-1728.8999999999999,148.79999999999998
395,-4.1145190839694665,3.4301603053435112,3.32189312977099,0.02236608886718764,-0.01458312988281231,1.0100135498046896,-3690.6,-1728.8999999999999,148.79999999999998
396,-3.0000152671755735,0.9721450381679388,0.9402137404580131,0.02407507324218764,-0.01775695800781231,1.0080604248046896,-3690.6,-1728.8999999999999,148.79999999999998
397,-1.8244427480916035,0.6820687022900762,5.581435114503814,0.04140905761718764,-0.01555969238281231,1.0080604248046896,-3690.6,-1728.8999999999999,148.79999999999998
398,-2.4503969465648856,-1.0278549618320612,-0.6933740458015292,0.02285437011718764,-0.01824523925781231,1.0078162841796896,-3690.6,-1728.8999999999999,148.79999999999998
399,-2.2213893129770996,-1.2415954198473282,4.32952671755725,0.01186804199218764,-0.02093078613281231,1.0056190185546896,-3690.6,-1728.8999999999999,148.79999999999998
400,-1.8397099236641228,-1.1194580152671756,0.6806717557251885,0.02920202636718764,-0.02044250488281231,1.0039100341796896,-3690.6,-1728.8999999999999,148.79999999999998
401,1.381664122137404,1.0637480916030533,-6.84604580152672,0.02895788574218764,-0.0035968017578123096,1.0031776123046896,-3690.6,-1728.8999999999999,148.79999999999998
402,2.1908244274809157,-0.1270916030534352,4.650137404580151,0.02920202636718764,-0.01897766113281231,1.0048865966796896,-3690.6,-1728.8999999999999,148.79999999999998
403,4.236625954198473,-1.333198473282443,-5.242992366412216,0.02261022949218764,-0.03167297363281231,1.0153846435546896,-3690.6,-1728.8999999999999,148.79999999999998
404,5.183190839694656,2.8652748091603053,-1.7773435114503835,0.02407507324218764,-0.01946594238281231,1.0043983154296896,-3690.6,-1728.8999999999999,148.79999999999998
405,6.969450381679389,3.5828320610687023,-2.815511450381682,0.02700476074218764,-0.03289367675781231,1.0097694091796896,-3690.6,-1728.8999999999999,148.79999999999998
406,3.0610534351145033,3.567564885496183,-1.2277251908396964,0.03457312011718764,-0.0031085205078123096,1.0102576904296896,-3690.6,-1728.8999999999999,148.79999999999998
407,0.8015114503816789,11.29275572519084,1.062351145038166,0.02700476074218764,-0.01482727050781231,1.0183143310546896,-3690.6,-1728.8999999999999,148.79999999999998
408,-2.4656641221374054,10.712603053435116,1.398229007633586,0.05752233886718764,-0.05999328613281231,1.0043983154296896,-3690.6,-1728.8999999999999,148.79999999999998
409,-0.45039694656488605,8.80420610687023,1.3371603053435095,0.01333288574218764,-0.01653625488281231,0.9953651123046896,-3690.6,-1728.8999999999999,148.79999999999998
410,-1.9771145038167945,2.0561145038167936,-1.716274809160308,0.01382116699218764,-0.00921203613281231,1.0012244873046896,-3690.6,-1728.8999999999999,148.79999999999998
411,-0.4045954198473287,5.140083969465649,-2.082687022900765,0.01284460449218764,-0.01018859863281231,1.0019569091796896,-3690.6,-1728.8999999999999,148.79999999999998
412,-0.8931450381679393,3.888175572519084,0.5585343511450356,0.02016882324218764,-0.01458312988281231,1.0024451904296896,-3690.6,-1728.8999999999999,148.79999999999998
413,-1.2290229007633593,5.002679389312977,3.7493740458015243,0.02212194824218764,-0.03191711425781231,1.0036658935546896,-3690.6,-1728.8999999999999,148.79999999999998
414,-5.71757251908397,-2.7225114503816794,43.749374045801524,-0.00815148925781236,-0.01848937988281231,0.9958533935546896,-3690.6,-1728.8999999999999,148.79999999999998
415,0.20609160305343466,3.2622213740458013,-2.2964274809160328,0.06216101074218764,-0.0006671142578123096,0.9875526123046896,-3690.6,-1728.8999999999999,148.79999999999998
416,1.549603053435114,0.20878625954198468,-9.34986259541985,0.01308874511718764,0.0003094482421876904,0.9914588623046896,-3690.6,-1728.8999999999999,148.79999999999998
417,3.2900610687022898,0.33092366412213736,-1.6399389312977126,0.01235632324218764,-0.00554992675781231,1.0266151123046896,-3690.6,-1728.8999999999999,148.79999999999998
418,-1.1832213740458022,3.521763358778626,5.2302900763358755,0.05337194824218764,0.00690124511718769,1.0002479248046896,-3690.6,-1728.8999999999999,148.79999999999998
419,-0.4045954198473287,3.7049694656488548,3.0470839694656466,0.03091101074218764,-0.01726867675781231,0.9445838623046896,-3690.6,-1728.8999999999999,148.79999999999998
420,-2.083984732824428,1.2164198473282442,-0.29642748091603277,-0.01205773925781236,-0.02312805175781231,1.0002479248046896,-3690.6,-1728.8999999999999,148.79999999999998
421,1.0305190839694651,-0.4782366412213741,-4.876580152671758,-0.00619836425781236,-0.0016436767578123096,0.9838905029296896,-3690.6,-1728.8999999999999,148.79999999999998
422,-1.4885648854961835,5.094282442748091,4.5585343511450365,-0.0035128173828123596,-0.00872375488281231,1.0090369873046896,-3690.6,-1728.8999999999999,148.79999999999998
423,-1.8397099236641228,-2.8904503816793894,3.6883053435114483,0.01845983886718764,-0.00774719238281231,0.9992713623046896,-3690.6,-1728.8999999999999,148.79999999999998
424,-0.1450534351145043,3.216419847328244,-1.273526717557254,0.02383093261718764,-0.01678039550781231,1.0024451904296896,-3690.6,-1728.8999999999999,148.79999999999998
425,0.41983206106870175,1.8729083969465647,-0.09795419847328457,0.02212194824218764,-0.00652648925781231,1.0002479248046896,-3690.6,-1728.8999999999999,148.79999999999998
426,2.4198320610687016,-0.9362519083969466,-1.1819236641221398,-0.0035128173828123596,-0.00652648925781231,0.9946326904296896,-3690.6,-1728.8999999999999,148.79999999999998
427,-0.19085496183206163,3.6133664122137406,-3.044519083969468,0.00796179199218764,-0.01140930175781231,1.0009803466796896,-3690.6,-1728.8999999999999,148.79999999999998
428,-2.618335877862596,-1.0583893129770994,4.024183206106867,0.00845007324218764,-0.01238586425781231,0.9973182373046896,-3690.6,-1728.8999999999999,148.79999999999998
429,-1.6717709923664128,-6.066022900763359,-6.815511450381682,0.01040319824218764,-0.01311828613281231,1.0063514404296896,-3690.6,-1728.8999999999999,148.79999999999998
430,0.8625801526717553,2.086648854961832,-3.075053435114506,0.09438757324218763,-0.07317687988281231,1.0310096435546896,-3690.6,-1728.8999999999999,148.79999999999998
431,1.0610534351145033,2.1935190839694654,1.3218931297709906,0.02773718261718764,0.01202819824218769,0.9939002685546896,-3690.6,-1728.8999999999999,148.79999999999998
432,-0.1450534351145043,-6.1576259541984735,-5.288793893129774,0.01943640136718764,0.00445983886718769,1.0058631591796896,-3690.6,-1728.8999999999999,148.79999999999998
433,-0.49619847328244315,-4.6003740458015265,-1.3193282442748115,0.01284460449218764,-0.02337219238281231,1.0058631591796896,-3690.6,-1728.8999999999999,148.79999999999998
434,0.2824274809160301,-0.6614427480916031,3.0012824427480895,0.00649694824218764,-0.01263000488281231,0.9992713623046896,-3690.6,-1728.8999999999999,148.79999999999998
435,-2.4503969465648856,-2.9209847328244276,5.688305343511448,0.00796179199218764,-0.01726867675781231,1.0080604248046896,-3690.6,-1728.8999999999999,148.79999999999998
436,1.4579999999999995,2.95687786259542,1.4287633587786237,0.01821569824218764,-0.01800109863281231,0.9978065185546896,-3690.6,-1728.8999999999999,148.79999999999998
437,0.6335725190839689,-0.4171679389312978,2.1310534351145014,0.02016882324218764,-0.01385070800781231,1.0009803466796896,-3690.6,-1728.8999999999999,148.79999999999998
438,0.9847175572519079,-0.5545725190839695,6.543267175572517,0.01137976074218764,-0.01116516113281231,1.0004920654296896,-3690.6,-1728.8999999999999,148.79999999999998
439,0.41983206106870175,-2.4935038167938934,1.047083969465647,-0.00473352050781236,-0.00994445800781231,0.9990272216796896,-3690.6,-1728.8999999999999,148.79999999999998
440,-0.17558778625954252,-8.020221374045802,0.5432671755725167,0.01186804199218764,-0.01409484863281231,1.0004920654296896,-3690.6,-1728.8999999999999,148.79999999999998
441,-0.05345038167938987,-0.7377786259541985,2.039450381679387,0.01137976074218764,-0.01043273925781231,1.0048865966796896,-3690.6,-1728.8999999999999,148.79999999999998
442,-2.38932824427481,-3.8522824427480917,-1.6246717557251928,0.01504187011718764,-0.01092102050781231,0.9995155029296896,-3690.6,-1728.8999999999999,148.79999999999998
443,-1.6717709923664128,-5.7148778625954195,2.6348702290076313,0.01748327636718764,-0.00970031738281231,1.0017127685546896,-3690.6,-1728.8999999999999,148.79999999999998
444,0.648839694656488,-6.89045038167939,-2.5254351145038187,0.01455358886718764,-0.01140930175781231,1.0014686279296896,-3690.6,-1728.8999999999999,148.79999999999998
445,0.4961679389312972,0.6820687022900762,4.5585343511450365,0.01382116699218764,-0.00994445800781231,1.0046424560546896,-3690.6,-1728.8999999999999,148.79999999999998
446,2.3740305343511445,-0.23396183206106877,3.505099236641219,0.00527624511718764,-0.01238586425781231,1.0109901123046896,-3690.6,-1728.8999999999999,148.79999999999998
447,-2.190854961832062,-4.066022900763358,-0.31169465648855166,0.00820593261718764,-0.01433898925781231,1.0031776123046896,-3690.6,-1728.8999999999999,148.79999999999998
448,1.717541984732824,-3.928618320610687,-8.174290076335879,0.02456335449218764,-0.01043273925781231,1.0053748779296896,-3690.6,-1728.8999999999999,148.79999999999998
449,-1.931312977099237,4.5141297709923665,1.3218931297709906,0.01650671386718764,-0.00677062988281231,1.0092811279296896,-3690.6,-1728.8999999999999,148.79999999999998
450,0.8931145038167934,1.1400839694656488,-1.5788702290076353,-0.0032686767578123596,-0.00799133300781231,1.0046424560546896,-3690.6,-1728.8999999999999,148.79999999999998
451,4.28242748091603,-4.066022900763358,1.9325801526717532,-0.00473352050781236,-0.00652648925781231,1.0026893310546896,-3690.6,-1728.8999999999999,148.79999999999998
452,2.5877709923664116,-5.898083969465649,-0.7544427480916056,0.02407507324218764,-0.01263000488281231,1.0024451904296896,-3690.6,-1728.8999999999999,148.79999999999998
453,-2.526732824427482,-0.5240381679389313,1.4134961832061048,0.00869421386718764,-0.01067687988281231,1.0058631591796896,-3690.6,-1728.8999999999999,148.79999999999998
454,-0.6641374045801531,7.216419847328244,-3.3193282442748115,0.00820593261718764,-0.01482727050781231,0.9870643310546896,-3690.6,-1728.8999999999999,148.79999999999998
455,0.5114351145038163,-6.21869465648855,-0.49490076335878097,0.01089147949218764,-0.00579406738281231,1.0078162841796896,-3690.6,-1728.8999999999999,148.79999999999998
456,-0.4045954198473287,2.5599312977099236,-3.853679389312979,-0.0032686767578123596,-0.01555969238281231,1.0058631591796896,-3690.6,-1728.8999999999999,148.79999999999998
457,2.6793740458015263,0.22405343511450374,2.6196030534351125,0.01211218261718764,-0.01922180175781231,1.0024451904296896,-3690.6,-1728.8999999999999,148.79999999999998
458,-1.4122290076335882,0.7889389312977098,-0.6933740458015292,0.01699499511718764,-0.01018859863281231,1.0002479248046896,-3690.6,-1728.8999999999999,148.79999999999998
459,1.732809160305343,-6.722511450381679,1.7799083969465626,0.01211218261718764,-0.02434875488281231,0.9919471435546896,-3690.6,-1728.8999999999999,148.79999999999998
460,-1.6107022900763364,-8.87518320610687,-1.4414656488549644,-0.06235070800781236,0.1423992919921877,0.9948768310546896,-3690.6,-1728.8999999999999,148.79999999999998
461,2.5877709923664116,-1.1957938931297711,0.9707480916030509,-0.0018038330078123596,0.00470397949218769,1.0180701904296896,-3690.6,-1728.8999999999999,148.79999999999998
462,1.717541984732824,-3.3942671755725193,-4.3269618320610705,0.01015905761718764,0.00470397949218769,0.9902381591796896,-3690.6,-1728.8999999999999,148.79999999999998
463,-2.740473282442749,-2.783580152671756,0.26845801526717317,0.00942663574218764,0.1609539794921877,1.0263709716796896,-3690.6,-1728.8999999999999,148.79999999999998
464,4.801511450381679,7.353824427480916,2.4363969465648836,0.04873327636718764,-0.01873352050781231,0.9973182373046896,-3690.6,-1728.8999999999999,148.79999999999998
465,-2.7099389312977102,2.850007633587786,-5.090320610687026,-0.0018038330078123596,0.02106140136718769,0.9992713623046896,-3690.6,-1728.8999999999999,148.79999999999998
466,-3.2595572519083973,4.483595419847328,-1.731541984732826,0.03213171386718764,0.00738952636718769,1.0075721435546896,-3690.6,-1728.8999999999999,148.79999999999998
467,-3.6870381679389324,10.422526717557252,11.398229007633585,0.07778601074218763,-0.00872375488281231,1.0019569091796896,-3690.6,-1728.8999999999999,148.79999999999998
468,-0.4045954198473287,3.8118396946564888,8.298992366412211,0.12734655761718763,-0.00823547363281231,1.0249061279296896,-3690.6,-1728.8999999999999,148.79999999999998
469,-4.083984732824428,10.437793893129772,13.184488549618319,0.10073522949218763,-0.03679992675781231,1.0051307373046896,-3690.6,-1728.8999999999999,148.79999999999998
470,-0.9236793893129776,6.7278702290076335,12.482198473282441,-0.01474328613281236,-0.05730773925781231,0.9958533935546896,-3690.6,-1728.8999999999999,148.79999999999998
471,-1.702305343511451,11.720236641221375,17.00128244274809,-0.06283898925781237,-0.01873352050781231,1.0249061279296896,-3690.6,-1728.8999999999999,148.79999999999998
472,-2.832076335877863,25.49122900763359,19.886778625954197,-0.02646203613281236,-0.02215148925781231,1.0366248779296896,-3690.6,-1728.8999999999999,148.79999999999998
473,-5.213755725190841,32.11718320610687,9.199755725190837,0.02358679199218764,0.01617858886718769,1.0583533935546896,-3690.6,-1728.8999999999999,148.79999999999998
474,-5.5649007633587795,36.07138167938931,13.596702290076333,0.00845007324218764,-0.01263000488281231,1.0405311279296896,-3690.6,-1728.8999999999999,148.79999999999998
475,-6.251923664122138,35.39962595419847,12.711206106870227,-0.01254602050781236,-0.02679016113281231,1.0065955810546896,-3690.6,-1728.8999999999999,148.79999999999998
476,-3.946580152671756,37.185885496183204,10.390595419847326,-0.04989953613281236,-0.02288391113281231,1.0070838623046896,-3690.6,-1728.8999999999999,148.79999999999998
477,0.0839541984732819,37.735503816793894,16.421129770992366,-0.01571984863281236,-0.04143859863281231,0.9992713623046896,-3690.6,-1728.8999999999999,148.79999999999998
478,0.41983206106870175,46.65153435114504,14.757007633587783,-0.04550500488281236,-0.03557922363281231,1.0024451904296896,-3690.6,-1728.8999999999999,148.79999999999998
479,-1.6717709923664128,41.857641221374045,11.321893129770991,-0.08261437988281237,-0.01433898925781231,0.9912147216796896,-3690.6,-1728.8999999999999,148.79999999999998
480,-2.267190839694657,43.918709923664125,5.688305343511448,-0.07626672363281237,0.0015301513671876904,0.9868201904296896,-3690.6,-1728.8999999999999,148.79999999999998
481,-2.1297862595419854,40.01031297709923,-1.044519083969468,-0.07455773925781237,0.01764343261718769,0.9809608154296896,-3690.6,-1728.8999999999999,148.79999999999998
482,2.1908244274809157,36.315656488549614,6.237923664122135,-0.08652062988281237,-0.0004229736328123096,0.9780311279296896,-3690.6,-1728.8999999999999,148.79999999999998
483,2.3740305343511445,33.03321374045802,-10.204824427480919,-0.08334680175781237,0.0007977294921876904,0.9697303466796896,-3690.6,-1728.8999999999999,148.79999999999998
484,3.4579999999999993,30.040847328244272,-6.617038167938934,-0.10165734863281237,0.0003094482421876904,0.9855994873046896,-3690.6,-1728.8999999999999,148.79999999999998
485,2.1144885496183203,31.567564885496182,-3.8078778625954213,-0.11093469238281237,-0.01653625488281231,0.9780311279296896,-3690.6,-1728.8999999999999,148.79999999999998
486,-0.4045954198473287,32.46832824427481,7.871511450381677,-0.12192102050781237,-0.01971008300781231,0.9694862060546896,-3690.6,-1728.8999999999999,148.79999999999998
487,-0.28245801526717607,26.57519847328244,-4.479633587786261,-0.12973352050781237,-0.01238586425781231,0.9609412841796896,-3690.6,-1728.8999999999999,148.79999999999998
488,-0.49619847328244315,22.08664885496183,-0.8765801526717576,-0.14145227050781237,-0.00481750488281231,0.9558143310546896,-3690.6,-1728.8999999999999,148.79999999999998
489,0.7709770992366407,19.811839694656488,-3.3498625954198493,-0.15536828613281237,-0.00799133300781231,0.9531287841796896,-3690.6,-1728.8999999999999,148.79999999999998
490,0.5877709923664117,12.880541984732826,-0.41856488549618565,-0.17441125488281237,-0.00945617675781231,0.9277381591796896,-3690.6,-1728.8999999999999,148.79999999999998
491,3.3205954198473275,-5.562206106870229,1.398229007633586,-0.17489953613281237,-0.02825500488281231,0.9262733154296896,-3690.6,-1728.8999999999999,148.79999999999998
492,0.23662595419847277,-7.88281679389313,-5.823145038167941,-0.18881555175781237,-0.02679016113281231,0.9230994873046896,-3690.6,-1728.8999999999999,148.79999999999998
493,2.9694503816793887,-20.03548854961832,-11.7926106870229,-0.18539758300781237,-0.0011553955078123096,0.9384803466796896,-3690.6,-1728.8999999999999,148.79999999999998
494,1.198458015267175,-18.26449618320611,-15.380396946564886,-0.16488977050781237,0.03107116699218769,0.9440955810546896,-3690.6,-1728.8999999999999,148.79999999999998
495,0.41983206106870175,-28.279763358778627,-18.32696183206107,-0.15365930175781237,0.04498718261718769,0.9599647216796896,-3690.6,-1728.8999999999999,148.79999999999998
496,2.8931145038167934,-35.012587786259544,-30.35749618320611,-0.14511437988281237,0.02692077636718769,0.9550819091796896,-3690.6,-1728.8999999999999,148.79999999999998
497,4.236625954198473,-40.89045038167939,-26.937648854961836,-0.16098352050781237,0.02692077636718769,0.9650916748046896,-3690.6,-1728.8999999999999,148.79999999999998
498,3.4121984732824426,-38.462969465648854,-31.273526717557253,-0.14682336425781237,0.01935241699218769,0.9650916748046896,-3690.6,-1728.8999999999999,148.79999999999998
499,5.396931297709923,-39.638541984732825,-30.739175572519088,-0.10605187988281237,-0.00725891113281231,0.9780311279296896,-3690.6,-1728.8999999999999,148.79999999999998
500,7.519068702290076,-46.951519083969465,-28.968183206106872,-0.10776086425781237,-0.02190734863281231,0.9790076904296896,-3690.6,-1728.8999999999999,148.79999999999998
501,8.480900763358779,-45.66907633587786,-34.46436641221374,-0.09506555175781237,-0.02776672363281231,0.9729041748046896,-3690.6,-1728.8999999999999,148.79999999999998
502,6.312961832061068,-44.21869465648855,-35.16665648854962,-0.09091516113281237,0.0029949951171876904,0.9907264404296896,-3690.6,-1728.8999999999999,148.79999999999998
503,4.664106870229007,-46.55457251908397,-37.65520610687023,-0.07187219238281237,0.01984069824218769,1.0114783935546896,-3690.6,-1728.8999999999999,148.79999999999998
504,4.526702290076336,-43.959152671755724,-46.69337404580153,-0.07187219238281237,0.05475280761718769,0.9216346435546896,-3690.6,-1728.8999999999999,148.79999999999998
505,8.95418320610687,-38.12709160305344,-68.15902290076336,-0.07675500488281237,0.05646179199218769,0.9985389404296896,-3690.6,-1728.8999999999999,148.79999999999998
506,9.427465648854962,-39.21106106870229,-79.9452824427481,-0.06064172363281236,0.04010437011718769,1.0014686279296896,-3690.6,-1728.8999999999999,148.79999999999998
507,9.076320610687022,-37.24159541984733,-86.32696183206107,-0.01718469238281236,0.04401062011718769,1.0043983154296896,-3690.6,-1728.8999999999999,148.79999999999998
508,9.381664122137405,-34.768312977099235,-92.05215267175574,0.03872351074218764,0.00519226074218769,0.9831580810546896,-3690.6,-1728.8999999999999,148.79999999999998
509,11.061053435114504,-36.21869465648855,-95.74680916030535,0.06850866699218763,0.03204772949218769,1.0175819091796896,-3690.6,-1728.8999999999999,148.79999999999998
510,11.106854961832061,-32.21869465648855,-104.37276335877864,0.07436804199218763,-0.01018859863281231,1.0734901123046896,-3690.6,-1728.8999999999999,148.79999999999998
511,13.97708396946565,-13.53167175572519,-107.9452824427481,0.01015905761718764,-0.00774719238281231,1.1081580810546896,-3690.6,-1728.8999999999999,148.79999999999998
512,9.946549618320612,-0.9667862595419848,-121.27352671755726,-0.00693078613281236,-0.05877258300781231,1.0153846435546896,-3690.6,-1728.8999999999999,148.79999999999998
513,7.687007633587785,-4.066022900763358,-129.34986259541986,0.02456335449218764,-0.00628234863281231,1.0139197998046896,-3690.6,-1728.8999999999999,148.79999999999998
514,8.038152671755725,4.865274809160305,-129.50253435114504,0.01137976074218764,0.01495788574218769,0.9851112060546896,-3690.6,-1728.8999999999999,148.79999999999998
515,5.870213740458015,-2.0812900763358777,-146.7544427480916,0.03164343261718764,-0.01409484863281231,1.0009803466796896,-3690.6,-1728.8999999999999,148.79999999999998
516,14.053419847328245,0.6057328244274808,-152.9071145038168,0.05703405761718764,0.00738952636718769,1.0065955810546896,-3690.6,-1728.8999999999999,148.79999999999998
517,9.595404580152671,-0.3255648854961833,-147.80787786259543,0.03823522949218764,-0.02727844238281231,1.0002479248046896,-3690.6,-1728.8999999999999,148.79999999999998
518,12.022885496183207,2.972145038167939,-151.65520610687022,0.04848913574218764,-0.01360656738281231,0.9875526123046896,-3690.6,-1728.8999999999999,148.79999999999998
519,14.236625954198473,2.972145038167939,-153.0750534351145,0.07925085449218763,-0.04388000488281231,0.9843787841796896,-3690.6,-1728.8999999999999,148.79999999999998
520,15.671740458015268,3.048480916030534,-138.37276335877863,0.04311804199218764,-0.07171203613281231,1.0139197998046896,-3690.6,-1728.8999999999999,148.79999999999998
521,7.717541984732824,-3.0736564885496183,-133.18192366412214,0.07998327636718763,-0.09807922363281231,1.0026893310546896,-3690.6,-1728.8999999999999,148.79999999999998
522,10.11448854961832,-0.4171679389312978,-133.9605496183206,0.06411413574218763,-0.07122375488281231,0.9943885498046896,-3690.6,-1728.8999999999999,148.79999999999998
523,12.374030534351146,-0.6156412213740459,-128.28116030534352,0.03237585449218764,-0.02459289550781231,0.9877967529296896,-3690.6,-1728.8999999999999,148.79999999999998
524,11.549603053435115,2.422526717557252,-129.89948091603054,0.03457312011718764,-0.0035968017578123096,1.0063514404296896,-3690.6,-1728.8999999999999,148.79999999999998
525,12.374030534351146,-0.1270916030534352,-133.34986259541986,0.06264929199218763,0.01349304199218769,1.0158729248046896,-3690.6,-1728.8999999999999,148.79999999999998
526,11.29006106870229,8.208786259541986,-130.28116030534352,0.07339147949218763,-0.02386047363281231,1.0229530029296896,-3690.6,-1728.8999999999999,148.79999999999998
527,8.511435114503817,1.0179465648854962,-133.31932824427483,0.06582312011718763,-0.02044250488281231,1.0087928466796896,-3690.6,-1728.8999999999999,148.79999999999998
528,9.076320610687022,2.2240534351145036,-136.0368854961832,0.03554968261718764,0.00616882324218769,1.0046424560546896,-3690.6,-1728.8999999999999,148.79999999999998
529,9.106854961832061,-0.5240381679389313,-128.02161832061068,0.01943640136718764,-0.03533508300781231,1.0256385498046896,-3690.6,-1728.8999999999999,148.79999999999998
530,9.47326717557252,-1.2415954198473282,-121.33459541984733,-0.0035128173828123596,-0.03435852050781231,1.0114783935546896,-3690.6,-1728.8999999999999,148.79999999999998
531,5.519068702290076,-3.730145038167939,-95.41093129770994,-0.01132531738281236,-0.09246398925781231,0.9882850341796896,-3690.6,-1728.8999999999999,148.79999999999998
532,13.717541984732824,-2.9209847328244276,-60.09795419847328,-0.42782922363281234,-0.1749835205078123,0.8168983154296896,-3690.6,-1728.8999999999999,148.79999999999998
533,4.267160305343511,0.9416106870229006,-42.40329770992366,0.08169226074218763,-0.2372393798828123,0.9516639404296896,-3690.6,-1728.8999999999999,148.79999999999998
534,6.923648854961831,-2.951519083969466,-28.17429007633588,-0.00912805175781236,-0.1388507080078123,0.9973182373046896,-3690.6,-1728.8999999999999,148.79999999999998
535,-0.5420000000000005,-3.898083969465649,-8.922381679389314,-0.04355187988281236,-0.02288391113281231,1.0083045654296896,-3690.6,-1728.8999999999999,148.79999999999998
536,1.7938778625954193,4.132450381679389,-8.311694656488552,-0.03500695800781236,0.02887390136718769,1.0014686279296896,-3690.6,-1728.8999999999999,148.79999999999998
537,-2.496198473282443,2.498862595419847,-6.723908396946567,-0.01156945800781236,0.08136413574218769,1.0000037841796896,-3690.6,-1728.8999999999999,148.79999999999998
538,-1.2748244274809164,-2.111824427480916,2.069984732824425,0.00820593261718764,0.08917663574218769,1.0073280029296896,-3690.6,-1728.8999999999999,148.79999999999998
539,-2.267190839694657,1.6744351145038168,0.17685496183205895,-0.00815148925781236,0.06818054199218769,0.9985389404296896,-3690.6,-1728.8999999999999,148.79999999999998
540,-2.1297862595419854,-3.195793893129771,3.7035725190839672,0.00576452636718764,0.0017742919921876904,0.9963416748046896,-3690.6,-1728.8999999999999,148.79999999999998
541,-5.305358778625955,-5.394267175572519,24.98601526717557,0.00429968261718764,0.01007507324218769,1.0022010498046896,-3690.6,-1728.8999999999999,148.79999999999998
542,-2.832076335877863,1.888175572519084,43.84097709923664,0.00478796386718764,0.00787780761718769,1.0031776123046896,-3690.6,-1728.8999999999999,148.79999999999998
543,-4.083984732824428,-3.4553358778625953,59.12341984732824,0.01382116699218764,-0.00774719238281231,0.9985389404296896,-3690.6,-1728.8999999999999,148.79999999999998
544,-5.595435114503817,-1.165259541984733,74.25319083969465,0.01260046386718764,-0.00945617675781231,1.0244178466796896,-3690.6,-1728.8999999999999,148.79999999999998
545,-6.328259541984734,3.369091603053435,83.44403053435114,0.01650671386718764,0.0034832763671876904,1.0190467529296896,-3690.6,-1728.8999999999999,148.79999999999998
546,-7.54963358778626,-0.814114503816794,94.81807633587785,0.04092077636718764,0.03229187011718769,1.0246619873046896,-3690.6,-1728.8999999999999,148.79999999999998
547,-4.72520610687023,1.369091603053435,115.50509923664121,-0.01816125488281236,0.02838562011718769,0.9794959716796896,-3690.6,-1728.8999999999999,148.79999999999998
548,-7.625969465648855,0.6515343511450381,125.56616793893129,-0.04379602050781236,0.01861999511718769,1.0078162841796896,-3690.6,-1728.8999999999999,148.79999999999998
549,-10.893145038167939,0.5446641221374044,142.2989923664122,-0.04867883300781236,0.04401062011718769,1.0043983154296896,-3690.6,-1728.8999999999999,148.79999999999998
550,-11.748106870229007,0.8500076335877862,150.39059541984733,-0.04452844238281236,-0.05633117675781231,0.9589881591796896,-3690.6,-1728.8999999999999,148.79999999999998
551,-13.580167938931298,-5.287396946564885,164.7112061068702,-0.04306359863281236,-0.03387023925781231,0.9997596435546896,-3690.6,-1728.8999999999999,148.79999999999998
552,-13.320625954198473,-6.188160305343511,184.57380152671755,-0.02695031738281236,-0.1390948486328123,0.9895057373046896,-3690.6,-1728.8999999999999,148.79999999999998
553,-15.824442748091602,1.750770992366412,195.1081526717557,-0.01132531738281236,-0.1588702392578123,0.9863319091796896,-3690.6,-1728.8999999999999,148.79999999999998
554,-11.305358778625955,-5.562206106870229,204.0547175572519,0.01870397949218764,-0.1398272705078123,0.9956092529296896,-3690.6,-1728.8999999999999,148.79999999999998
555,-16.297725190839696,2.95687786259542,197.12341984732822,0.08828405761718763,-0.12151672363281231,1.0126990966796896,-3690.6,-1728.8999999999999,148.79999999999998
556,-15.610702290076336,-6.142358778625955,188.7112061068702,0.10464147949218763,-0.04388000488281231,1.0122108154296896,-3690.6,-1728.8999999999999,148.79999999999998
557,-14.175587786259541,-0.4782366412213741,165.9631145038168,0.15932897949218763,-0.04949523925781231,1.0244178466796896,-3690.6,-1728.8999999999999,148.79999999999998
558,-14.175587786259541,9.445427480916031,139.74937404580152,0.6751981201171876,0.4910321044921877,0.6054725341796896,-3690.6,-1728.8999999999999,148.79999999999998
559,-10.923679389312976,8.376725190839695,143.4287633587786,0.07754187011718763,0.12042663574218769,1.0043983154296896,-3690.6,-1728.8999999999999,148.79999999999998
560,-9.70230534351145,-1.7759465648854962,144.9249465648855,0.06850866699218763,0.07916687011718769,0.9790076904296896,-3690.6,-1728.8999999999999,148.79999999999998
561,-13.961847328244275,-2.5393053435114505,132.23792366412215,0.01821569824218764,-0.00530578613281231,1.0063514404296896,-3690.6,-1728.8999999999999,148.79999999999998
562,-5.71757251908397,1.2622213740458015,129.42876335877864,-0.01474328613281236,-0.03069641113281231,0.9836463623046896,-3690.6,-1728.8999999999999,148.79999999999998
563,-9.488564885496183,1.0484809160305342,135.38296183206106,-0.01742883300781236,-0.10442687988281231,1.0180701904296896,-3690.6,-1728.8999999999999,148.79999999999998
564,-14.358793893129771,3.4301603053435112,119.93258015267175,-0.01034875488281236,-0.1268878173828123,0.9895057373046896,-3690.6,-1728.8999999999999,148.79999999999998
565,-14.648870229007633,-0.8751832061068703,99.10815267175572,-0.07846398925781237,-0.07659484863281231,1.0295447998046896,-3690.6,-1728.8999999999999,148.79999999999998
566,-13.000015267175572,0.5446641221374044,80.80280916030533,-0.10165734863281237,0.00763366699218769,1.0390662841796896,-3690.6,-1728.8999999999999,148.79999999999998
567,-18.633603053435113,-8.020221374045802,55.50509923664122,-0.10385461425781237,0.05182312011718769,1.0012244873046896,-3690.6,-1728.8999999999999,148.79999999999998
568,-13.656503816793894,3.2927557251908395,42.72647328244275,-0.08310266113281237,0.04474304199218769,0.9782752685546896,-3690.6,-1728.8999999999999,148.79999999999998
569,-2.862610687022902,-1.0736564885496183,18.726473282442747,-0.01596398925781236,0.04498718261718769,0.9362830810546896,-3690.6,-1728.8999999999999,148.79999999999998
570,9.152656488549619,-0.6767099236641222,11.001282442748089,-0.0030245361328123596,0.03033874511718769,0.9199256591796896,-3690.6,-1728.8999999999999,148.79999999999998
571,24.587770992366412,-4.325564885496183,-3.181923664122139,0.00771765136718764,0.02423522949218769,0.9421424560546896,-3690.6,-1728.8999999999999,148.79999999999998
572,21.59540458015267,-2.2034274809160306,-8.494900763358782,-0.00424523925781236,0.01837585449218769,1.0673865966796896,-3690.6,-1728.8999999999999,148.79999999999998
573,2.6335725190839687,-0.9820534351145039,-11.548335877862598,-0.02109094238281236,0.06476257324218769,1.0241737060546896,-3690.6,-1728.8999999999999,148.79999999999998
574,2.053419847328244,0.4377938931297709,-14.342229007633588,0.00552038574218764,-0.0011553955078123096,1.0041541748046896,-3690.6,-1728.8999999999999,148.79999999999998
575,3.931282442748091,0.31565648854961825,-8.723908396946566,0.02383093261718764,-0.04168273925781231,1.0085487060546896,-3690.6,-1728.8999999999999,148.79999999999998
576,3.8549465648854957,-1.1957938931297711,-12.265893129770994,0.06826452636718763,-0.03728820800781231,0.9997596435546896,-3690.6,-1728.8999999999999,148.79999999999998
577,2.8473129770992363,-2.0202213740458017,-8.00635114503817,0.02944616699218764,-0.00725891113281231,1.0105018310546896,-3690.6,-1728.8999999999999,148.79999999999998
578,1.9007480916030528,3.308022900763359,-5.9910839694656515,0.01284460449218764,0.03131530761718769,1.0268592529296896,-3690.6,-1728.8999999999999,148.79999999999998
579,3.0763206106870227,-3.6538091603053435,8.360061068702288,0.02944616699218764,0.07721374511718769,0.9939002685546896,-3690.6,-1728.8999999999999,148.79999999999998
580,0.648839694656488,2.086648854961832,4.634870229007632,-0.10751672363281237,0.06744812011718769,1.0163612060546896,-3690.6,-1728.8999999999999,148.79999999999998
581,-1.534366412213741,1.4301603053435115,-0.8155114503816812,0.04653601074218764,-0.05340148925781231,1.0004920654296896,-3690.6,-1728.8999999999999,148.79999999999998
582,-0.7557404580152676,-2.783580152671756,1.9631145038167919,0.00552038574218764,-0.00506164550781231,1.0039100341796896,-3690.6,-1728.8999999999999,148.79999999999998
583,-0.6183358778625958,-4.310297709923664,2.4363969465648836,0.02285437011718764,-0.01995422363281231,0.9873084716796896,-3690.6,-1728.8999999999999,148.79999999999998
584,0.41983206106870175,-3.3179312977099236,-1.3040610687022927,0.00942663574218764,-0.0031085205078123096,0.9814490966796896,-3690.6,-1728.8999999999999,148.79999999999998
585,2.3282290076335874,6.422526717557252,-2.372763358778628,0.00625280761718764,-0.03142883300781231,0.9946326904296896,-3690.6,-1728.8999999999999,148.79999999999998
586,-1.931312977099237,-1.2873969465648856,-5.01398473282443,0.0018582763671876404,-0.01116516113281231,1.0048865966796896,-3690.6,-1728.8999999999999,148.79999999999998
587,-1.2290229007633593,3.308022900763359,1.520366412213738,0.0035672607421876404,-0.00921203613281231,1.0051307373046896,-3690.6,-1728.8999999999999,148.79999999999998
588,-0.1450534351145043,-4.142358778625954,4.81807633587786,0.00918249511718764,-0.00896789550781231,1.0046424560546896,-3690.6,-1728.8999999999999,148.79999999999998
589,1.0305190839694651,1.7202366412213739,1.6425038167938908,0.01455358886718764,-0.01116516113281231,1.0034217529296896,-3690.6,-1728.8999999999999,148.79999999999998
590,-0.3587938931297714,3.2622213740458013,-0.5254351145038187,0.01748327636718764,-0.00799133300781231,1.0019569091796896,-3690.6,-1728.8999999999999,148.79999999999998
591,2.5572366412213734,-4.783580152671756,2.6501374045801507,0.02456335449218764,-0.00799133300781231,0.9997596435546896,-3690.6,-1728.8999999999999,148.79999999999998
592,-0.26719083969465696,3.6286335877862594,-1.487267175572522,0.00771765136718764,-0.01214172363281231,1.0119666748046896,-3690.6,-1728.8999999999999,148.79999999999998
593,2.4198320610687016,-1.3179312977099238,4.069984732824425,0.00576452636718764,-0.01067687988281231,0.9858436279296896,-3690.6,-1728.8999999999999,148.79999999999998
594,0.3587633587786254,3.2927557251908395,1.3371603053435095,0.02285437011718764,-0.00921203613281231,1.0004920654296896,-3690.6,-1728.8999999999999,148.79999999999998
595,-1.7481068702290081,-1.0736564885496183,-1.6399389312977126,-0.00473352050781236,-0.01165344238281231,0.9990272216796896,-3690.6,-1728.8999999999999,148.79999999999998
596,-4.190854961832062,-0.6614427480916031,2.421129770992364,-0.0035128173828123596,-0.00896789550781231,1.0000037841796896,-3690.6,-1728.8999999999999,148.79999999999998
597,2.7251755725190834,0.7584045801526716,0.20738931297709673,0.00820593261718764,-0.01360656738281231,1.0124549560546896,-3690.6,-1728.8999999999999,148.79999999999998
598,3.0152519083969462,-0.6461755725190841,-3.2277251908396964,0.00722937011718764,-0.01067687988281231,0.9997596435546896,-3690.6,-1728.8999999999999,148.79999999999998
599,-1.0152824427480922,0.468328244274809,-1.716274809160308,0.00893835449218764,-0.00750305175781231,1.0009803466796896,-3690.6,-1728.8999999999999,148.79999999999998
600,-2.0076488549618325,3.2622213740458013,-4.3269618320610705,0.02602819824218764,-0.00970031738281231,1.0117225341796896,-3690.6,-1728.8999999999999,148.79999999999998
601,2.5572366412213734,-0.3255648854961833,4.589068702290074,0.00429968261718764,-0.00677062988281231,0.9958533935546896,-3690.6,-1728.8999999999999,148.79999999999998
602,1.0305190839694651,1.8423740458015265,4.176854961832059,0.01357702636718764,-0.01067687988281231,1.0014686279296896,-3690.6,-1728.8999999999999,148.79999999999998
603,-0.3129923664122143,-1.3637328244274811,-4.418564885496186,0.00845007324218764,-0.00628234863281231,1.0090369873046896,-3690.6,-1728.8999999999999,148.79999999999998
604,-0.7710076335877867,0.14771755725190835,-6.815511450381682,0.00747351074218764,-0.01678039550781231,0.9997596435546896,-3690.6,-1728.8999999999999,148.79999999999998
605,2.1144885496183203,7.231687022900763,-7.716274809160308,0.00649694824218764,-0.01482727050781231,1.0004920654296896,-3690.6,-1728.8999999999999,148.79999999999998
606,-0.05345038167938987,1.5980992366412212,-7.105587786259544,0.02480749511718764,-0.01214172363281231,1.0029334716796896,-3690.6,-1728.8999999999999,148.79999999999998
607,-1.7481068702290081,-2.111824427480916,-0.6170381679389338,0.00869421386718764,-0.01385070800781231,1.0014686279296896,-3690.6,-1728.8999999999999,148.79999999999998
608,2.6335725190839687,-2.524038167938931,1.5814351145038144,0.01089147949218764,-0.00945617675781231,0.9970740966796896,-3690.6,-1728.8999999999999,148.79999999999998
609,0.6793740458015263,2.407259541984733,3.459297709923662,-0.00448937988281236,-0.00579406738281231,0.9990272216796896,-3690.6,-1728.8999999999999,148.79999999999998
610,0.2824274809160301,4.376725190839695,1.9936488549618296,-0.00497766113281236,-0.00872375488281231,1.0024451904296896,-3690.6,-1728.8999999999999,148.79999999999998
611,-0.09925190839694698,-2.814114503816794,2.4821984732824403,0.00942663574218764,-0.00994445800781231,1.0046424560546896,-3690.6,-1728.8999999999999,148.79999999999998
612,-2.267190839694657,-1.2415954198473282,-3.609404580152673,0.00893835449218764,-0.01287414550781231,1.0039100341796896,-3690.6,-1728.8999999999999,148.79999999999998
613,-2.0076488549618325,0.8805419847328244,-4.983450381679391,0.01113562011718764,-0.01311828613281231,0.9980506591796896,-3690.6,-1728.8999999999999,148.79999999999998
614,0.0839541984732819,-4.066022900763358,-1.3651297709923682,0.00429968261718764,-0.01287414550781231,1.0080604248046896,-3690.6,-1728.8999999999999,148.79999999999998
615,0.2518931297709919,3.2774885496183206,-6.754442748091605,0.00942663574218764,-0.01458312988281231,1.0019569091796896,-3690.6,-1728.8999999999999,148.79999999999998
616,0.8931145038167934,-3.3179312977099236,-3.914748091603056,-0.00448937988281236,-0.01385070800781231,0.9958533935546896,-3690.6,-1728.8999999999999,148.79999999999998
617,2.2366259541984728,6.11718320610687,2.0089160305343485,-0.00497766113281236,-0.01067687988281231,1.0017127685546896,-3690.6,-1728.8999999999999,148.79999999999998
618,-1.870244274809161,-8.111824427480915,1.9173129770992343,0.00845007324218764,-0.00677062988281231,1.0029334716796896,-3690.6,-1728.8999999999999,148.79999999999998
619,1.5038015267175568,-0.8599160305343513,-1.7773435114503835,0.00576452636718764,-0.00847961425781231,1.0078162841796896,-3690.6,-1728.8999999999999,148.79999999999998
620,-0.09925190839694698,-0.5240381679389313,-2.372763358778628,0.00478796386718764,-0.01116516113281231,1.0048865966796896,-3690.6,-1728.8999999999999,148.79999999999998
621,-1.931312977099237,0.8347404580152671,1.8104427480916012,0.02505163574218764,-0.01214172363281231,1.0647010498046896,-3690.6,-1728.8999999999999,148.79999999999998
622,1.6870076335877857,0.7889389312977098,-1.8994809160305364,-0.0020479736328123596,-0.00579406738281231,0.9526405029296896,-3690.6,-1728.8999999999999,148.79999999999998
623,-1.2290229007633593,0.9263435114503815,4.497465648854959,0.01040319824218764,-0.00872375488281231,0.9855994873046896,-3690.6,-1728.8999999999999,148.79999999999998
624,-2.0076488549618325,0.6515343511450381,-0.5559694656488574,0.00600866699218764,-0.00970031738281231,1.0280799560546896,-3690.6,-1728.8999999999999,148.79999999999998
625,-5.2290229007633595,-7.4858702290076335,2.924946564885494,0.01137976074218764,-0.00896789550781231,0.9816932373046896,-3690.6,-1728.8999999999999,148.79999999999998
626,-0.3129923664122143,-3.8217480916030535,4.970748091603051,0.00893835449218764,-0.01214172363281231,1.0085487060546896,-3690.6,-1728.8999999999999,148.79999999999998
627,0.9389160305343507,-4.20342748091603,-2.082687022900765,0.01089147949218764,-0.00725891113281231,1.0007362060546896,-3690.6,-1728.8999999999999,148.79999999999998
628,1.549603053435114,-5.943885496183206,4.268458015267173,0.02505163574218764,-0.00799133300781231,0.9965858154296896,-3690.6,-1728.8999999999999,148.79999999999998
629,0.5419694656488545,-2.982053435114504,2.3447938931297685,0.01211218261718764,-0.01263000488281231,0.9985389404296896,-3690.6,-1728.8999999999999,148.79999999999998
630,0.5419694656488545,3.017946564885496,-2.6475725190839716,0.00820593261718764,-0.00945617675781231,0.9821815185546896,-3690.6,-1728.8999999999999,148.79999999999998
631,3.3358625954198464,0.2545877862595419,-2.7697099236641245,0.00600866699218764,-0.00799133300781231,0.9978065185546896,-3690.6,-1728.8999999999999,148.79999999999998
632,2.0381526717557246,1.3385572519083968,-9.01398473282443,0.00698522949218764,-0.01067687988281231,1.0073280029296896,-3690.6,-1728.8999999999999,148.79999999999998
633,-1.152687022900764,2.666801526717557,4.619603053435112,0.00698522949218764,-0.01092102050781231,1.0017127685546896,-3690.6,-1728.8999999999999,148.79999999999998
634,1.0763206106870224,1.1706183206106868,1.4592977099236624,0.00991491699218764,-0.01238586425781231,0.9982947998046896,-3690.6,-1728.8999999999999,148.79999999999998
635,-0.9694809160305347,-2.814114503816794,2.3295267175572496,0.00796179199218764,-0.00970031738281231,1.0041541748046896,-3690.6,-1728.8999999999999,148.79999999999998
636,-1.0458167938931304,-4.020221374045802,-0.8155114503816812,0.01333288574218764,-0.01311828613281231,0.9980506591796896,-3690.6,-1728.8999999999999,148.79999999999998
637,-0.5420000000000005,-1.2721297709923665,0.6501374045801507,-0.0037569580078123596,-0.00457336425781231,0.9985389404296896,-3690.6,-1728.8999999999999,148.79999999999998
638,2.465633587786259,0.5599312977099236,-4.17429007633588,0.01235632324218764,-0.00554992675781231,0.9882850341796896,-3690.6,-1728.8999999999999,148.79999999999998
639,0.7709770992366407,2.254587786259542,5.0012824427480895,0.01430944824218764,-0.00481750488281231,1.0100135498046896,-3690.6,-1728.8999999999999,148.79999999999998
640,0.2824274809160301,1.8271068702290076,3.5661679389312955,0.01015905761718764,-0.01067687988281231,0.9995155029296896,-3690.6,-1728.8999999999999,148.79999999999998
641,-2.3282595419847336,1.5828320610687021,6.466931297709921,0.00503210449218764,-0.00725891113281231,0.9990272216796896,-3690.6,-1728.8999999999999,148.79999999999998
642,-0.3129923664122143,-1.0278549618320612,-1.3193282442748115,0.01089147949218764,-0.00945617675781231,1.0019569091796896,-3690.6,-1728.8999999999999,148.79999999999998
643,1.5038015267175568,-5.898083969465649,0.05471755725190608,0.00845007324218764,-0.01214172363281231,0.9982947998046896,-3690.6,-1728.8999999999999,148.79999999999998
644,-2.6641374045801536,0.07138167938931292,-0.0674198473282468,0.00893835449218764,-0.01165344238281231,1.0014686279296896,-3690.6,-1728.8999999999999,148.79999999999998
645,0.20609160305343466,-5.424801526717557,-0.9681832061068727,0.01064733886718764,-0.01433898925781231,1.0100135498046896,-3690.6,-1728.8999999999999,148.79999999999998
646,0.7251755725190835,-0.6003740458015268,-6.082687022900765,0.00893835449218764,-0.01311828613281231,1.0007362060546896,-3690.6,-1728.8999999999999,148.79999999999998
647,0.2518931297709919,-1.8370152671755726,1.6883053435114483,0.00576452636718764,-0.01336242675781231,0.9992713623046896,-3690.6,-1728.8999999999999,148.79999999999998
648,1.2442595419847324,-3.363732824427481,-0.49490076335878097,0.00918249511718764,-0.00847961425781231,0.9929237060546896,-3690.6,-1728.8999999999999,148.79999999999998
649,0.23662595419847277,-5.119458015267176,1.276091603053433,0.02529577636718764,-0.00701477050781231,1.0009803466796896,-3690.6,-1728.8999999999999,148.79999999999998
650,0.4656335877862591,-1.4858702290076338,-3.7468091603053457,0.00893835449218764,-0.01409484863281231,0.9855994873046896,-3690.6,-1728.8999999999999,148.79999999999998
651,-1.5801679389312981,3.048480916030534,1.7646412213740437,0.01015905761718764,-0.01311828613281231,1.0034217529296896,-3690.6,-1728.8999999999999,148.79999999999998
652,-2.5725343511450385,-2.7377786259541987,-6.17429007633588,0.00600866699218764,-0.01385070800781231,0.9970740966796896,-3690.6,-1728.8999999999999,148.79999999999998
653,0.06868702290076278,-5.943885496183206,-6.8307786259542,0.00796179199218764,-0.00896789550781231,1.0004920654296896,-3690.6,-1728.8999999999999,148.79999999999998
654,1.6412061068702286,-0.05075572519083976,-5.059786259541988,0.02529577636718764,-0.01018859863281231,0.9853553466796896,-3690.6,-1728.8999999999999,148.79999999999998
655,-2.4809312977099243,-1.4858702290076338,-4.86131297709924,0.01504187011718764,-0.00554992675781231,0.9785194091796896,-3690.6,-1728.8999999999999,148.79999999999998
656,-0.23665648854961874,0.4377938931297709,-4.34222900763359,0.01553015136718764,-0.0033526611328123096,0.9921912841796896,-3690.6,-1728.8999999999999,148.79999999999998
657,1.198458015267175,0.040847328244274755,-4.0063511450381695,0.01382116699218764,-0.00823547363281231,0.9963416748046896,-3690.6,-1728.8999999999999,148.79999999999998
658,2.8473129770992363,2.3156564885496183,-4.403297709923666,0.00967077636718764,-0.00750305175781231,0.9939002685546896,-3690.6,-1728.8999999999999,148.79999999999998
659,0.9389160305343507,0.22405343511450374,2.2379236641221354,0.00967077636718764,-0.01189758300781231,1.0002479248046896,-3690.6,-1728.8999999999999,148.79999999999998
660,-2.4503969465648856,-0.2034274809160306,4.222656488549616,0.01113562011718764,-0.01018859863281231,0.9978065185546896,-3690.6,-1728.8999999999999,148.79999999999998
661,2.3740305343511445,-4.661442748091603,-1.2277251908396964,-0.00424523925781236,-0.01287414550781231,0.9975623779296896,-3690.6,-1728.8999999999999,148.79999999999998
662,-2.4503969465648856,-3.8522824427480917,1.5814351145038144,0.01675085449218764,-0.01092102050781231,0.9814490966796896,-3690.6,-1728.8999999999999,148.79999999999998
663,0.11448854961832011,-1.7759465648854962,2.6196030534351125,0.01162390136718764,-0.00579406738281231,0.9987830810546896,-3690.6,-1728.8999999999999,148.79999999999998
664,0.5114351145038163,-3.577473282442748,-1.044519083969468,0.00967077636718764,-0.01092102050781231,1.0126990966796896,-3690.6,-1728.8999999999999,148.79999999999998
665,1.6412061068702286,2.3461908396946565,1.520366412213738,0.00552038574218764,-0.00970031738281231,1.0031776123046896,-3690.6,-1728.8999999999999,148.79999999999998
666,-2.3587938931297714,-2.5087709923664123,-1.4261984732824446,0.00576452636718764,-0.00994445800781231,0.9982947998046896,-3690.6,-1728.8999999999999,148.79999999999998
667,2.8931145038167934,-0.3255648854961833,0.955480916030532,0.00503210449218764,-0.00725891113281231,1.0075721435546896,-3690.6,-1728.8999999999999,148.79999999999998
668,-0.17558778625954252,-5.027854961832062,-2.632305343511452,0.01601843261718764,-0.01311828613281231,0.9619178466796896,-3690.6,-1728.8999999999999,148.79999999999998
669,-0.8015419847328249,2.269854961832061,2.1310534351145014,0.01675085449218764,-0.01189758300781231,0.9721717529296896,-3690.6,-1728.8999999999999,148.79999999999998
670,1.1221221374045796,2.1935190839694654,0.8028091603053413,0.01577429199218764,-0.00579406738281231,0.9912147216796896,-3690.6,-1728.8999999999999,148.79999999999998
671,2.938916030534351,-3.8064809160305346,7.2302900763358755,0.01162390136718764,-0.00481750488281231,0.9943885498046896,-3690.6,-1728.8999999999999,148.79999999999998
