Number,Gyro_X,Gyro_Y,Gyro_Z,Acc_X,Acc_Y,Acc_Z
1,0.0603473282442748,-0.1092557251908398,0.08556870229007796,-0.00043627929687502925,-0.0010987548828124555,0.9976120605468739
2,-0.06179007633587785,0.012881679389312867,0.03976717557252085,-0.006051513671875029,-0.0032960205078124555,1.001274169921874
3,-0.06179007633587785,0.04341603053435103,0.0626679389312994,0.0017609863281249707,0.0018309326171875445,1.010307373046874
4,0.04508015267175569,0.00524809160305334,-0.036568702290074695,-0.00043627929687502925,0.0028074951171875445,0.9961472167968739
5,-0.0388893129770993,-0.010019083969465742,0.0626679389312994,-0.0036101074218750293,0.0035399169921875445,0.9983444824218739
6,0.006912213740458029,-0.002385496183206215,0.009232824427482633,0.0015168457031249707,-0.0015870361328124555,1.004692138671874
7,-0.015988549618320747,-0.010019083969465742,0.009232824427482633,-0.0023894042968750293,0.0028074951171875445,0.9988327636718739
8,-0.015988549618320747,0.02051526717557242,0.03976717557252085,-0.0016569824218750293,-0.0025635986328124555,1.000053466796874
9,-0.05415648854961841,0.02814885496183195,0.016866412213742077,-0.00019213867187502925,-0.0006104736328124555,0.9937058105468739
10,-0.02362213740458019,0.012881679389312867,0.032133587786261186,-0.0011687011718750293,0.0028074951171875445,0.9998093261718739
11,-0.031255725190839856,0.00524809160305334,0.016866412213742077,-0.007028076171875029,0.0013426513671875445,0.9976120605468739
12,-0.00835496183206108,-0.017652671755725297,0.009232824427482633,0.0015168457031249707,-0.0006104736328124555,1.003471435546874
13,-0.0388893129770993,0.0357824427480915,-0.021301526717555586,0.0032258300781249707,-0.0003663330078124555,0.9995651855468739
14,-0.0007213740458016371,0.02814885496183195,0.009232824427482633,0.0012727050781249707,0.0028074951171875445,0.9990769042968739
15,0.08324809160305335,-0.06345419847328254,-0.02893511450381514,-0.0006804199218750293,-0.0008546142578124555,1.002983154296874
16,-0.09995801526717574,0.00524809160305334,0.0015992366412229675,0.0007844238281249707,0.00012194824218754452,1.004936279296874
17,0.0603473282442748,0.00524809160305334,0.0015992366412229675,0.0029816894531249707,0.0037840576171875445,0.9990769042968739
18,-0.05415648854961841,-0.04818702290076346,0.03976717557252085,0.0024934082031249707,0.0013426513671875445,0.9998093261718739
19,-0.06179007633587785,-0.03291984732824438,0.024500000000001743,0.0010285644531249707,-0.0006104736328124555,0.9961472167968739
20,-0.015988549618320747,0.0357824427480915,0.09320229007633762,5.2001953124970746e-05,0.0015867919921875445,0.9966354980468739
21,0.006912213740458029,0.05868320610687011,-0.013667938931296142,-0.0038542480468750293,0.0018309326171875445,1.000053466796874
22,-0.00835496183206108,-0.08635496183206118,0.05503435114503974,-0.0009245605468750293,0.0003660888671875445,1.004936279296874
23,0.006912213740458029,0.07395038167938922,0.032133587786261186,-0.0006804199218750293,0.0006102294921875445,0.9981003417968739
24,-0.02362213740458019,0.00524809160305334,0.1313702290076353,-0.0011687011718750293,-0.0047608642578124555,0.9983444824218739
25,-0.02362213740458019,0.02814885496183195,-0.006034351145036476,-0.0014128417968750293,0.0015867919921875445,1.000297607421874
26,0.1061488549618319,-0.0710877862595421,-0.04420229007633425,0.0007844238281249707,0.0030516357421875445,0.9966354980468739
27,-0.04652290076335874,-0.04055343511450393,0.016866412213742077,0.0029816894531249707,-0.0020753173828124555,0.9990769042968739
28,-0.00835496183206108,-0.04055343511450393,-0.051835877862593804,0.0012727050781249707,-0.00012219238281245548,1.002494873046874
29,-0.02362213740458019,-0.04055343511450393,0.08556870229007796,0.0017609863281249707,-0.0023194580078124555,1.000785888671874
30,0.11378244274809157,-0.04055343511450393,-0.021301526717555586,-0.0009245605468750293,0.0025633544921875445,1.003227294921874
31,-0.0007213740458016371,-0.002385496183206215,0.032133587786261186,-0.00043627929687502925,-0.0023194580078124555,1.003227294921874
32,-0.015988549618320747,-0.0710877862595421,-0.07473664122137236,-0.0011687011718750293,0.0013426513671875445,0.9985886230468739
33,-0.04652290076335874,0.0357824427480915,-0.04420229007633425,-0.004342529296875029,-0.00012219238281245548,0.9961472167968739
34,-0.0007213740458016371,0.08921755725190827,0.016866412213742077,-0.0009245605468750293,0.0006102294921875445,0.9949265136718739
35,0.04508015267175569,-0.11688931297709934,0.009232824427482633,-0.00019213867187502925,-0.0023194580078124555,1.000785888671874
36,-0.05415648854961841,0.05868320610687011,-0.09000381679389147,0.0012727050781249707,0.0003660888671875445,0.9993210449218739
37,-0.07705725190839696,-0.12452290076335888,-0.051835877862593804,0.0020051269531249707,-0.00012219238281245548,0.9934616699218739
38,-0.0388893129770993,-0.017652671755725297,-0.09763740458015102,-0.0036101074218750293,0.0015867919921875445,1.000541748046874
39,-0.02362213740458019,0.07395038167938922,-0.181606870229006,0.0007844238281249707,0.0013426513671875445,1.001030029296874
40,0.022179389312976916,0.02051526717557242,-0.13580534351144868,0.004446533203124971,-0.0008546142578124555,0.9941940917968739
41,0.02981297709923658,0.06631679389312967,-0.05946946564885325,-0.0023894042968750293,0.0030516357421875445,1.001274169921874
42,0.07561450381679391,-0.10162213740458026,-0.13580534351144868,5.2001953124970746e-05,-0.0025635986328124555,1.006401123046874
43,0.052713740458015135,-0.03291984732824438,-0.04420229007633425,0.0022492675781249707,0.0013426513671875445,0.9959030761718739
44,-0.06179007633587785,0.0357824427480915,-0.051835877862593804,0.0032258300781249707,0.0023192138671875445,0.9973679199218739
45,0.04508015267175569,-0.017652671755725297,0.0015992366412229675,-0.0011687011718750293,-0.0018311767578124555,0.9949265136718739
46,-0.02362213740458019,-0.04055343511450393,0.047400763358780296,0.006399658203124971,-0.0003663330078124555,1.000053466796874
47,0.014545801526717472,0.02814885496183195,-0.04420229007633425,0.0015168457031249707,-0.0013428955078124555,1.002494873046874
48,0.07561450381679391,-0.002385496183206215,0.07030152671755885,5.2001953124970746e-05,0.0010985107421875445,0.9985886230468739
49,0.037446564885496025,-0.02528625954198485,-0.013667938931296142,5.2001953124970746e-05,0.0008543701171875445,0.9946823730468739
50,-0.11522519083969462,-0.04055343511450393,-0.02893511450381514,-0.0006804199218750293,0.0015867919921875445,1.002494873046874
51,-0.04652290076335874,0.09685114503816783,-0.051835877862593804,-0.0031218261718750293,0.00012194824218754452,0.9993210449218739
52,0.1061488549618319,0.0357824427480915,0.03976717557252085,-0.0011687011718750293,0.0006102294921875445,0.9968796386718739
53,-0.0007213740458016371,-0.002385496183206215,0.1466374045801544,0.004934814453124971,0.0010985107421875445,0.9978562011718739
54,-0.0388893129770993,-0.03291984732824438,0.009232824427482633,0.0007844238281249707,-0.0018311767578124555,0.9966354980468739
55,-0.031255725190839856,-0.010019083969465742,-0.006034351145036476,0.0020051269531249707,0.0010985107421875445,0.9946823730468739
56,0.014545801526717472,0.06631679389312967,0.0015992366412229675,0.0027375488281249707,-0.0030518798828124555,0.9978562011718739
57,0.006912213740458029,-0.02528625954198485,0.12373664122137562,-0.0006804199218750293,0.0006102294921875445,0.9988327636718739
58,-0.0007213740458016371,0.06631679389312967,-0.036568702290074695,-0.00019213867187502925,0.0023192138671875445,1.003471435546874
59,-0.06942366412213752,-0.06345419847328254,0.016866412213742077,-0.0021452636718750293,-0.0037843017578124555,0.9981003417968739
60,-0.06942366412213752,-0.010019083969465742,0.07030152671755885,0.0017609863281249707,-0.0025635986328124555,0.9973679199218739
61,0.08324809160305335,-0.04055343511450393,0.0015992366412229675,-0.00019213867187502925,-0.0028077392578124555,0.9993210449218739
62,0.04508015267175569,-0.03291984732824438,0.024500000000001743,-0.0026335449218750293,-0.0018311767578124555,1.000053466796874
63,-0.04652290076335874,0.012881679389312867,0.0015992366412229675,-0.0011687011718750293,-0.0023194580078124555,1.009086669921874
64,-0.05415648854961841,0.07395038167938922,0.032133587786261186,-0.00043627929687502925,-0.0006104736328124555,1.002739013671874
65,0.014545801526717472,-0.08635496183206118,0.08556870229007796,-0.0011687011718750293,0.0030516357421875445,1.002250732421874
66,0.022179389312976916,-0.017652671755725297,0.11610305343511618,0.0017609863281249707,0.0010985107421875445,0.9961472167968739
67,-0.05415648854961841,-0.010019083969465742,0.047400763358780296,-0.0006804199218750293,0.0030516357421875445,0.9985886230468739
68,-0.04652290076335874,0.127385496183206,0.10846946564885673,-0.0033659667968750293,0.0008543701171875445,1.001762451171874
69,0.04508015267175569,-0.07872137404580164,0.10846946564885673,-0.0016569824218750293,0.0018309326171875445,1.001274169921874
70,0.037446564885496025,0.05104961832061056,0.09320229007633762,0.0010285644531249707,0.0025633544921875445,1.001274169921874
71,-0.031255725190839856,0.04341603053435103,0.009232824427482633,-0.00019213867187502925,-0.0010987548828124555,1.003959716796874
72,-0.02362213740458019,-0.04818702290076346,0.047400763358780296,-0.00019213867187502925,-0.0020753173828124555,0.9973679199218739
73,-0.015988549618320747,-0.04818702290076346,-0.036568702290074695,0.0027375488281249707,0.0030516357421875445,1.007377685546874
74,-0.09995801526717574,-0.017652671755725297,0.11610305343511618,0.0012727050781249707,-0.0003663330078124555,0.9976120605468739
75,-0.015988549618320747,0.04341603053435103,0.032133587786261186,-0.00043627929687502925,-0.0025635986328124555,1.002250732421874
76,-0.015988549618320747,-0.04818702290076346,-0.013667938931296142,-0.0026335449218750293,0.0006102294921875445,1.001030029296874
77,-0.06942366412213752,-0.07872137404580164,0.009232824427482633,-0.00019213867187502925,-0.0023194580078124555,0.9995651855468739
78,-0.07705725190839696,-0.13215648854961842,-0.013667938931296142,-0.0036101074218750293,0.0032957763671875445,0.9981003417968739
79,-0.05415648854961841,0.012881679389312867,0.03976717557252085,0.007132080078124971,-0.00012219238281245548,0.9993210449218739
80,0.006912213740458029,-0.02528625954198485,0.009232824427482633,-0.0011687011718750293,0.0025633544921875445,1.002250732421874
81,-0.031255725190839856,0.05868320610687011,-0.006034351145036476,-0.0026335449218750293,-0.0006104736328124555,0.9919968261718739
82,-0.0388893129770993,-0.002385496183206215,-0.021301526717555586,0.0020051269531249707,0.0037840576171875445,1.000541748046874
83,-0.0007213740458016371,0.04341603053435103,0.016866412213742077,0.0024934082031249707,0.0025633544921875445,0.9978562011718739
84,0.037446564885496025,0.02051526717557242,-0.051835877862593804,-0.0031218261718750293,0.0006102294921875445,0.9968796386718739
85,-0.015988549618320747,-0.04818702290076346,0.03976717557252085,-0.0028776855468750293,0.0010985107421875445,1.000053466796874
86,0.037446564885496025,-0.08635496183206118,0.03976717557252085,-0.00043627929687502925,-0.0006104736328124555,1.002006591796874
87,-0.0007213740458016371,0.02051526717557242,-0.013667938931296142,-0.0019011230468750293,0.0047606201171875445,0.9963913574218739
88,-0.02362213740458019,-0.09398854961832072,-0.02893511450381514,-0.0009245605468750293,0.00012194824218754452,1.001030029296874
89,-0.00835496183206108,-0.010019083969465742,-0.09763740458015102,0.0022492675781249707,-0.0010987548828124555,1.000541748046874
90,-0.04652290076335874,-0.02528625954198485,0.032133587786261186,0.00029614257812497075,-0.0040284423828124555,1.001762451171874
91,-0.02362213740458019,-0.055820610687023015,-0.036568702290074695,0.0020051269531249707,-0.0006104736328124555,1.001518310546874
92,-0.07705725190839696,0.08921755725190827,-0.021301526717555586,0.0037141113281249707,0.0032957763671875445,0.9993210449218739
93,-0.00835496183206108,-0.04818702290076346,0.009232824427482633,-0.0026335449218750293,0.0030516357421875445,0.9949265136718739
94,0.1061488549618319,0.09685114503816783,0.032133587786261186,0.00029614257812497075,0.0032957763671875445,1.000785888671874
95,-0.0388893129770993,-0.02528625954198485,-0.04420229007633425,0.0034699707031249707,0.0023192138671875445,1.000297607421874
96,-0.06942366412213752,-0.0710877862595421,-0.04420229007633425,0.0007844238281249707,-0.0018311767578124555,0.9981003417968739
97,-0.05415648854961841,0.00524809160305334,0.07030152671755885,-0.0028776855468750293,0.0020750732421875445,1.012260498046874
98,0.08324809160305335,0.0357824427480915,-0.04420229007633425,-0.0006804199218750293,-0.0037843017578124555,0.9988327636718739
99,0.11378244274809157,-0.02528625954198485,-0.12053816793892969,-0.0006804199218750293,0.0003660888671875445,1.000297607421874
100,0.022179389312976916,0.11975190839694644,0.08556870229007796,0.0017609863281249707,-0.0050050048828124555,0.9988327636718739
101,-0.031255725190839856,0.00524809160305334,-0.07473664122137236,5.2001953124970746e-05,-0.0023194580078124555,0.9990769042968739
102,0.04508015267175569,0.00524809160305334,-0.08237022900763191,0.0022492675781249707,-0.0054932861328124555,0.9976120605468739
103,-0.0388893129770993,0.02814885496183195,-0.04420229007633425,0.0012727050781249707,0.0050047607421875445,1.000053466796874
104,0.052713740458015135,-0.055820610687023015,-0.04420229007633425,-0.0023894042968750293,0.0020750732421875445,0.9993210449218739
105,-0.0007213740458016371,0.04341603053435103,0.047400763358780296,0.0034699707031249707,-0.0008546142578124555,0.9990769042968739
106,-0.0007213740458016371,0.00524809160305334,-0.021301526717555586,0.003958251953124971,-0.0042725830078124555,1.003715576171874
107,0.052713740458015135,0.10448473282442738,-0.006034351145036476,0.0010285644531249707,0.0013426513671875445,1.005912841796874
108,-0.031255725190839856,-0.002385496183206215,0.047400763358780296,-0.00043627929687502925,-0.0003663330078124555,0.9895554199218739
109,-0.00835496183206108,0.05104961832061056,-0.04420229007633425,-0.0016569824218750293,-0.0003663330078124555,0.9981003417968739
110,0.037446564885496025,0.04341603053435103,-0.036568702290074695,0.0034699707031249707,0.00012194824218754452,0.9993210449218739
111,-0.02362213740458019,-0.002385496183206215,0.032133587786261186,-0.00019213867187502925,-0.0023194580078124555,0.9963913574218739
112,0.006912213740458029,0.05868320610687011,-0.036568702290074695,-0.0011687011718750293,0.0010985107421875445,1.001518310546874
113,0.11378244274809157,0.08921755725190827,0.10083587786259707,-0.00043627929687502925,0.0040281982421875445,1.001030029296874
114,0.006912213740458029,0.06631679389312967,-0.006034351145036476,0.0017609863281249707,0.00012194824218754452,1.001030029296874
115,-0.0388893129770993,-0.13215648854961842,-0.021301526717555586,0.0034699707031249707,-0.0015870361328124555,0.9990769042968739
116,0.02981297709923658,-0.017652671755725297,-0.013667938931296142,-0.0009245605468750293,0.0013426513671875445,0.9976120605468739
117,-0.05415648854961841,-0.017652671755725297,0.032133587786261186,0.0012727050781249707,-0.0025635986328124555,1.002739013671874
118,-0.05415648854961841,-0.04818702290076346,0.12373664122137562,0.0029816894531249707,0.0015867919921875445,0.9941940917968739
119,0.02981297709923658,-0.0710877862595421,0.047400763358780296,0.0020051269531249707,-0.0035401611328124555,1.002983154296874
120,0.02981297709923658,-0.002385496183206215,-0.021301526717555586,0.0007844238281249707,0.0015867919921875445,1.002739013671874
121,0.006912213740458029,0.02051526717557242,0.07030152671755885,-0.0019011230468750293,-0.0006104736328124555,0.9995651855468739
122,-0.05415648854961841,0.06631679389312967,0.03976717557252085,-0.00019213867187502925,0.0003660888671875445,0.9978562011718739
123,-0.04652290076335874,-0.06345419847328254,0.024500000000001743,0.0010285644531249707,-0.0020753173828124555,1.001762451171874
124,-0.0388893129770993,0.10448473282442738,-0.006034351145036476,0.003958251953124971,-0.0006104736328124555,1.000785888671874
125,-0.0007213740458016371,0.00524809160305334,0.009232824427482633,0.00029614257812497075,-0.00012219238281245548,0.9961472167968739
126,-0.0388893129770993,0.06631679389312967,-0.006034351145036476,0.0022492675781249707,0.0013426513671875445,1.000541748046874
127,0.052713740458015135,0.02814885496183195,0.10846946564885673,0.0007844238281249707,0.0042723388671875445,1.000785888671874
128,0.08324809160305335,-0.02528625954198485,0.016866412213742077,-0.00019213867187502925,-0.0008546142578124555,0.9937058105468739
129,-0.09995801526717574,-0.09398854961832072,0.12373664122137562,0.0010285644531249707,-0.0010987548828124555,0.9961472167968739
130,-0.0007213740458016371,-0.055820610687023015,0.07030152671755885,0.0005402832031249707,0.0018309326171875445,1.000785888671874
131,-0.05415648854961841,0.08158396946564878,-0.036568702290074695,5.2001953124970746e-05,-0.0030518798828124555,0.9990769042968739
132,0.04508015267175569,-0.002385496183206215,0.10846946564885673,0.0027375488281249707,-0.0025635986328124555,0.9981003417968739
133,0.04508015267175569,-0.02528625954198485,0.07793511450381851,-0.0009245605468750293,0.0010985107421875445,0.9934616699218739
134,0.014545801526717472,0.0357824427480915,0.10083587786259707,-0.0011687011718750293,0.00012194824218754452,1.002250732421874
135,-0.015988549618320747,-0.1092557251908398,0.009232824427482633,-0.0021452636718750293,0.0020750732421875445,1.003471435546874
136,-0.02362213740458019,-0.002385496183206215,-0.051835877862593804,-0.0026335449218750293,0.0018309326171875445,1.002983154296874
137,-0.0007213740458016371,-0.04818702290076346,0.009232824427482633,5.2001953124970746e-05,0.0003660888671875445,0.9981003417968739
138,0.02981297709923658,0.11975190839694644,-0.08237022900763191,0.0010285644531249707,0.0018309326171875445,0.9995651855468739
139,0.1061488549618319,0.02051526717557242,0.0015992366412229675,0.0022492675781249707,0.0010985107421875445,0.9956589355468739
140,0.052713740458015135,0.08158396946564878,0.12373664122137562,-0.0026335449218750293,0.0013426513671875445,1.003715576171874
141,0.0603473282442748,0.04341603053435103,0.0015992366412229675,-0.0031218261718750293,0.0015867919921875445,1.002494873046874
142,-0.031255725190839856,0.06631679389312967,-0.0671030534351128,0.005911376953124971,0.0023192138671875445,1.001518310546874
143,0.022179389312976916,0.04341603053435103,-0.051835877862593804,-0.0009245605468750293,0.0020750732421875445,1.001762451171874
144,0.0908816793893128,-0.017652671755725297,-0.013667938931296142,-0.00043627929687502925,0.0003660888671875445,0.9988327636718739
145,0.02981297709923658,-0.09398854961832072,-0.07473664122137236,-0.0026335449218750293,-0.0023194580078124555,0.9988327636718739
146,-0.0007213740458016371,0.02814885496183195,0.03976717557252085,0.0034699707031249707,-0.0035401611328124555,1.002494873046874
147,-0.06942366412213752,-0.02528625954198485,-0.036568702290074695,0.0024934082031249707,0.0025633544921875445,1.001762451171874
148,-0.0388893129770993,0.06631679389312967,0.03976717557252085,-0.0014128417968750293,-0.0025635986328124555,0.9973679199218739
149,0.04508015267175569,-0.03291984732824438,-0.013667938931296142,-0.005074951171875029,0.0003660888671875445,1.001030029296874
150,-0.0388893129770993,0.00524809160305334,0.0015992366412229675,0.0012727050781249707,-0.00012219238281245548,0.9988327636718739
151,-0.00835496183206108,0.04341603053435103,0.032133587786261186,-0.00019213867187502925,-0.0003663330078124555,0.9990769042968739
152,0.02981297709923658,-0.002385496183206215,0.024500000000001743,-0.0006804199218750293,0.0003660888671875445,0.9976120605468739
153,-0.08469083969465663,-0.02528625954198485,-0.02893511450381514,0.0017609863281249707,0.0006102294921875445,1.002006591796874
154,0.052713740458015135,-0.017652671755725297,-0.14343893129770824,-0.00019213867187502925,-0.0013428955078124555,0.9993210449218739
155,0.09851526717557246,0.02814885496183195,-0.04420229007633425,0.0012727050781249707,0.0003660888671875445,1.003715576171874
156,0.014545801526717472,-0.002385496183206215,-0.036568702290074695,5.2001953124970746e-05,0.0047606201171875445,0.9995651855468739
157,-0.02362213740458019,0.04341603053435103,-0.036568702290074695,0.004446533203124971,-0.0010987548828124555,1.001518310546874
158,-0.0388893129770993,-0.055820610687023015,-0.12817175572518913,0.006155517578124971,-0.0015870361328124555,1.001518310546874
159,0.052713740458015135,0.06631679389312967,0.047400763358780296,-0.00043627929687502925,0.0042723388671875445,1.001274169921874
160,-0.0007213740458016371,-0.08635496183206118,0.07030152671755885,0.0010285644531249707,0.0013426513671875445,1.001518310546874
161,0.022179389312976916,0.04341603053435103,0.08556870229007796,0.0015168457031249707,0.00012194824218754452,0.9995651855468739
162,-0.08469083969465663,0.10448473282442738,0.0015992366412229675,-0.0036101074218750293,0.00012194824218754452,0.9981003417968739
163,0.006912213740458029,-0.010019083969465742,0.0015992366412229675,-0.0009245605468750293,0.0008543701171875445,1.000541748046874
164,0.1443167938931298,0.05868320610687011,0.016866412213742077,-0.0019011230468750293,0.0008543701171875445,0.9990769042968739
165,-0.00835496183206108,-0.010019083969465742,-0.07473664122137236,-0.0014128417968750293,-0.0025635986328124555,1.003715576171874
166,-0.031255725190839856,0.05868320610687011,-0.05946946564885325,0.0017609863281249707,-0.00012219238281245548,1.002983154296874
167,-0.05415648854961841,0.00524809160305334,-0.006034351145036476,5.2001953124970746e-05,0.0006102294921875445,1.004203857421874
168,0.006912213740458029,-0.010019083969465742,0.07793511450381851,0.0037141113281249707,0.0003660888671875445,1.001518310546874
169,0.014545801526717472,-0.03291984732824438,0.08556870229007796,0.0017609863281249707,0.0006102294921875445,0.9988327636718739
170,-0.00835496183206108,0.02814885496183195,0.03976717557252085,0.004446533203124971,0.0028074951171875445,0.9968796386718739
171,-0.0007213740458016371,0.127385496183206,0.13900381679389473,0.0017609863281249707,-0.00012219238281245548,1.002739013671874
172,-0.031255725190839856,0.00524809160305334,0.009232824427482633,-0.0031218261718750293,0.0008543701171875445,1.001518310546874
173,-0.0007213740458016371,-0.0710877862595421,-0.0671030534351128,-0.004098388671875029,-0.0020753173828124555,1.000297607421874
174,0.037446564885496025,0.04341603053435103,0.009232824427482633,5.2001953124970746e-05,0.00012194824218754452,0.9934616699218739
175,-0.0388893129770993,0.02051526717557242,0.009232824427482633,0.00029614257812497075,0.0032957763671875445,1.002983154296874
176,0.02981297709923658,0.11211832061068694,0.024500000000001743,-0.0019011230468750293,0.0010985107421875445,1.001518310546874
177,0.022179389312976916,0.02051526717557242,-0.20450763358778457,5.2001953124970746e-05,-0.0015870361328124555,1.002006591796874
178,-0.0007213740458016371,0.06631679389312967,-0.013667938931296142,-0.0021452636718750293,0.0008543701171875445,0.9993210449218739
179,0.07561450381679391,0.02051526717557242,0.03976717557252085,-0.0031218261718750293,0.0040281982421875445,0.9998093261718739
180,-0.04652290076335874,-0.04818702290076346,-0.013667938931296142,-0.005074951171875029,-0.00012219238281245548,1.006645263671874
181,-0.015988549618320747,0.00524809160305334,-0.036568702290074695,0.00029614257812497075,-0.0008546142578124555,1.001030029296874
182,0.0603473282442748,-0.0710877862595421,0.05503435114503974,-0.0019011230468750293,-0.0050050048828124555,1.000541748046874
183,-0.08469083969465663,-0.13215648854961842,-0.12053816793892969,-0.0011687011718750293,-0.0032960205078124555,1.006645263671874
184,-0.02362213740458019,-0.04818702290076346,-0.04420229007633425,0.0024934082031249707,-0.0020753173828124555,1.002739013671874
185,0.0908816793893128,0.06631679389312967,-0.07473664122137236,-0.0016569824218750293,0.0008543701171875445,1.000785888671874
186,0.15195038167938923,0.07395038167938922,-0.07473664122137236,-0.00043627929687502925,-0.0020753173828124555,1.001030029296874
187,-0.05415648854961841,-0.03291984732824438,-0.04420229007633425,0.0027375488281249707,-0.00012219238281245548,0.9988327636718739
188,-0.0007213740458016371,-0.02528625954198485,-0.04420229007633425,0.0037141113281249707,0.0032957763671875445,1.001030029296874
189,-0.10759160305343518,0.06631679389312967,-0.051835877862593804,0.0034699707031249707,0.0023192138671875445,1.002250732421874
190,-0.07705725190839696,0.012881679389312867,-0.021301526717555586,0.004934814453124971,0.0035399169921875445,0.9978562011718739
191,0.014545801526717472,-0.03291984732824438,0.05503435114503974,0.0015168457031249707,0.0076903076171875445,1.004203857421874
192,-0.04652290076335874,0.08921755725190827,0.10846946564885673,-0.00043627929687502925,0.0025633544921875445,0.9998093261718739
193,-0.02362213740458019,-0.04818702290076346,0.009232824427482633,-0.0019011230468750293,0.0028074951171875445,1.000053466796874
194,-0.031255725190839856,-0.1092557251908398,-0.006034351145036476,-0.005319091796875029,0.0003660888671875445,0.9954147949218739
195,-0.00835496183206108,-0.06345419847328254,0.016866412213742077,-0.0016569824218750293,-0.0025635986328124555,0.9968796386718739
196,0.0603473282442748,0.00524809160305334,-0.006034351145036476,0.0034699707031249707,-0.0003663330078124555,1.004203857421874
197,-0.02362213740458019,-0.002385496183206215,0.09320229007633762,0.0022492675781249707,0.0003660888671875445,0.9976120605468739
198,-0.0388893129770993,0.0357824427480915,0.0626679389312994,0.00786450195312497,-0.0040284423828124555,1.001030029296874
199,-0.06179007633587785,0.012881679389312867,0.09320229007633762,0.0012727050781249707,0.0013426513671875445,0.9990769042968739
200,-0.0388893129770993,-0.04818702290076346,0.032133587786261186,0.0015168457031249707,-0.0018311767578124555,1.002983154296874
201,-0.0007213740458016371,-0.002385496183206215,0.16953816793893295,-0.0036101074218750293,-0.0018311767578124555,0.9961472167968739
202,-0.06179007633587785,-0.04818702290076346,0.032133587786261186,0.0007844238281249707,-0.0045167236328124555,0.9973679199218739
203,-0.07705725190839696,0.06631679389312967,-0.006034351145036476,0.0005402832031249707,-0.0006104736328124555,1.000785888671874
204,-0.04652290076335874,-0.04818702290076346,0.18480534351145206,0.003958251953124971,-0.0032960205078124555,1.003959716796874
205,0.037446564885496025,0.05104961832061056,-0.021301526717555586,0.0007844238281249707,-0.00012219238281245548,1.001274169921874
206,0.04508015267175569,-0.04818702290076346,0.10846946564885673,0.005911376953124971,-0.0015870361328124555,0.9963913574218739
207,0.02981297709923658,0.02814885496183195,0.1313702290076353,0.0034699707031249707,0.0006102294921875445,0.9971237792968739
208,-0.015988549618320747,0.00524809160305334,-0.021301526717555586,0.0020051269531249707,0.0018309326171875445,1.008598388671874
209,0.006912213740458029,0.00524809160305334,0.024500000000001743,-0.00043627929687502925,0.0015867919921875445,0.9890671386718739
210,-0.00835496183206108,-0.002385496183206215,0.047400763358780296,0.0020051269531249707,0.0015867919921875445,0.9946823730468739
211,-0.015988549618320747,0.012881679389312867,0.05503435114503974,-0.0021452636718750293,0.0006102294921875445,0.9951706542968739
212,-0.04652290076335874,-0.010019083969465742,0.0626679389312994,-0.00019213867187502925,0.0006102294921875445,0.9951706542968739
213,-0.02362213740458019,0.00524809160305334,0.09320229007633762,-0.0036101074218750293,0.0013426513671875445,1.003227294921874
214,-0.02362213740458019,-0.12452290076335888,0.11610305343511618,0.0007844238281249707,0.0020750732421875445,1.002739013671874
215,0.0603473282442748,-0.04818702290076346,0.20007251908397117,-0.0028776855468750293,0.0025633544921875445,0.9990769042968739
216,-0.1381259541984734,0.06631679389312967,0.1313702290076353,-0.00019213867187502925,-0.0037843017578124555,1.002494873046874
217,0.037446564885496025,0.06631679389312967,0.0626679389312994,-0.0033659667968750293,-0.0010987548828124555,0.9951706542968739
218,-0.04652290076335874,-0.11688931297709934,0.24587404580152827,-0.005319091796875029,-0.0018311767578124555,0.9988327636718739
219,-0.06179007633587785,0.05868320610687011,0.0626679389312994,0.0005402832031249707,-0.0010987548828124555,0.9971237792968739
220,-0.00835496183206108,0.1426526717557251,0.03976717557252085,-0.0011687011718750293,0.0003660888671875445,0.9963913574218739
221,0.006912213740458029,-0.07872137404580164,-0.021301526717555586,0.0005402832031249707,0.0013426513671875445,1.003227294921874
222,0.006912213740458029,0.05868320610687011,0.15427099236641384,0.003958251953124971,-0.0045167236328124555,1.008354248046874
223,-0.015988549618320747,-0.04818702290076346,0.20007251908397117,0.0017609863281249707,0.0003660888671875445,1.000297607421874
224,0.022179389312976916,-0.09398854961832072,0.10846946564885673,-0.0026335449218750293,0.0006102294921875445,0.9966354980468739
225,0.02981297709923658,-0.1474236641221375,0.11610305343511618,0.004446533203124971,-0.0025635986328124555,1.013969482421874
226,-0.015988549618320747,0.06631679389312967,0.032133587786261186,0.0032258300781249707,-0.0008546142578124555,0.9998093261718739
227,-0.04652290076335874,0.02814885496183195,-0.04420229007633425,0.005911376953124971,0.0008543701171875445,1.007133544921874
228,-0.00835496183206108,-0.010019083969465742,0.07030152671755885,-0.004342529296875029,0.00012194824218754452,0.9981003417968739
229,-0.04652290076335874,0.02051526717557242,0.10083587786259707,-0.00043627929687502925,-0.0032960205078124555,0.9963913574218739
230,0.037446564885496025,0.0357824427480915,-0.02893511450381514,-0.00019213867187502925,0.0008543701171875445,1.000541748046874
231,-0.07705725190839696,-0.10162213740458026,0.11610305343511618,0.0017609863281249707,-0.0018311767578124555,0.9973679199218739
232,-0.031255725190839856,0.05868320610687011,0.09320229007633762,0.0015168457031249707,0.0015867919921875445,1.006401123046874
233,0.006912213740458029,0.02814885496183195,-0.051835877862593804,0.0034699707031249707,0.0003660888671875445,1.002006591796874
234,0.09851526717557246,0.02051526717557242,0.1313702290076353,0.0017609863281249707,0.0032957763671875445,0.9966354980468739
235,-0.04652290076335874,-0.055820610687023015,-0.04420229007633425,0.0022492675781249707,-0.0020753173828124555,1.015678466796874
236,-0.031255725190839856,0.02051526717557242,0.032133587786261186,-0.0006804199218750293,-0.0028077392578124555,0.9981003417968739
237,0.02981297709923658,0.00524809160305334,-0.051835877862593804,5.2001953124970746e-05,-0.0008546142578124555,0.9966354980468739
238,-0.015988549618320747,-0.15505725190839706,0.07793511450381851,0.0007844238281249707,0.0045164794921875445,1.000785888671874
239,0.04508015267175569,-0.04818702290076346,0.17717175572519261,-0.0011687011718750293,-0.0028077392578124555,1.000053466796874
240,-0.02362213740458019,0.0357824427480915,0.024500000000001743,-0.0009245605468750293,0.0003660888671875445,1.002006591796874
241,0.04508015267175569,0.02814885496183195,0.032133587786261186,-0.0006804199218750293,0.0008543701171875445,1.004936279296874
242,-0.05415648854961841,-0.04055343511450393,-0.006034351145036476,-0.0026335449218750293,-0.0030518798828124555,1.005912841796874
243,-0.015988549618320747,0.08921755725190827,0.0626679389312994,-0.0026335449218750293,-0.0037843017578124555,0.9998093261718739
244,-0.0007213740458016371,0.11211832061068694,0.032133587786261186,-0.0033659667968750293,-0.0010987548828124555,1.016655029296874
245,0.02981297709923658,0.012881679389312867,-0.04420229007633425,-0.0006804199218750293,-0.0006104736328124555,1.003959716796874
246,0.0603473282442748,-0.002385496183206215,-0.021301526717555586,0.0012727050781249707,0.0035399169921875445,0.9985886230468739
247,-0.05415648854961841,0.02814885496183195,-0.021301526717555586,0.0024934082031249707,0.0013426513671875445,1.002494873046874
248,0.02981297709923658,0.0357824427480915,0.009232824427482633,0.0027375488281249707,-0.00012219238281245548,1.000541748046874
249,0.037446564885496025,0.00524809160305334,0.10083587786259707,-0.0019011230468750293,0.0003660888671875445,1.001762451171874
250,-0.0007213740458016371,-0.017652671755725297,-0.021301526717555586,0.0012727050781249707,-0.00012219238281245548,1.000053466796874
251,0.07561450381679391,0.05104961832061056,-0.051835877862593804,-0.0009245605468750293,0.0008543701171875445,0.9998093261718739
252,0.02981297709923658,-0.010019083969465742,0.07793511450381851,-0.0011687011718750293,-0.0010987548828124555,0.9988327636718739
253,0.052713740458015135,-0.1474236641221375,-0.021301526717555586,-0.0019011230468750293,0.0035399169921875445,1.000297607421874
254,0.02981297709923658,-0.10162213740458026,-0.051835877862593804,0.006887939453124971,-0.0054932861328124555,0.9993210449218739
255,0.04508015267175569,0.02814885496183195,0.03976717557252085,0.0012727050781249707,0.0008543701171875445,1.002494873046874
256,-0.08469083969465663,-0.07872137404580164,0.08556870229007796,-0.004098388671875029,-0.0013428955078124555,0.9993210449218739
257,-0.08469083969465663,-0.08635496183206118,0.016866412213742077,0.0022492675781249707,0.0003660888671875445,0.9971237792968739
258,0.022179389312976916,0.06631679389312967,0.0626679389312994,0.0032258300781249707,0.0003660888671875445,1.004203857421874
259,0.07561450381679391,-0.02528625954198485,-0.036568702290074695,-0.0011687011718750293,0.0052489013671875445,1.004447998046874
260,-0.0007213740458016371,-0.10162213740458026,-0.12053816793892969,-0.0006804199218750293,-0.0013428955078124555,1.000297607421874
261,-0.031255725190839856,0.012881679389312867,-0.013667938931296142,0.0029816894531249707,0.0020750732421875445,0.9995651855468739
262,-0.0388893129770993,0.012881679389312867,0.016866412213742077,0.004202392578124971,0.0030516357421875445,0.9932175292968739
263,-0.031255725190839856,-0.03291984732824438,-0.051835877862593804,-0.0038542480468750293,0.0018309326171875445,0.9973679199218739
264,-0.06942366412213752,-0.11688931297709934,-0.013667938931296142,-0.0019011230468750293,-0.0032960205078124555,1.004936279296874
265,0.0908816793893128,-0.04818702290076346,-0.02893511450381514,0.0022492675781249707,-0.0008546142578124555,1.004936279296874
266,0.006912213740458029,-0.02528625954198485,-0.05946946564885325,-0.0009245605468750293,0.0035399169921875445,0.9995651855468739
267,-0.015988549618320747,0.0357824427480915,-0.14343893129770824,0.0027375488281249707,-0.0020753173828124555,0.9963913574218739
268,0.02981297709923658,-0.04055343511450393,-0.04420229007633425,-0.0009245605468750293,0.0037840576171875445,0.9990769042968739
269,-0.015988549618320747,0.04341603053435103,-0.04420229007633425,-0.0014128417968750293,-0.0010987548828124555,1.000297607421874
270,-0.0388893129770993,0.00524809160305334,-0.09763740458015102,-0.00019213867187502925,-0.0025635986328124555,1.004203857421874
271,-0.07705725190839696,0.012881679389312867,-0.07473664122137236,0.003958251953124971,-0.0013428955078124555,1.001030029296874
272,-0.04652290076335874,0.0357824427480915,0.07793511450381851,-0.0006804199218750293,-0.0008546142578124555,0.9981003417968739
273,0.07561450381679391,-0.02528625954198485,-0.02893511450381514,-0.0033659667968750293,0.0013426513671875445,0.9998093261718739
274,0.07561450381679391,0.00524809160305334,-0.12053816793892969,-0.0031218261718750293,0.0003660888671875445,1.001274169921874
275,-0.0007213740458016371,0.04341603053435103,0.024500000000001743,0.004934814453124971,-0.0028077392578124555,1.000053466796874
276,-0.00835496183206108,0.07395038167938922,-0.013667938931296142,0.0015168457031249707,0.00012194824218754452,1.000297607421874
277,-0.09232442748091607,-0.002385496183206215,-0.05946946564885325,0.0037141113281249707,-0.0020753173828124555,1.005668701171874
278,0.037446564885496025,-0.010019083969465742,0.009232824427482633,0.0029816894531249707,-0.0020753173828124555,1.002494873046874
279,-0.02362213740458019,-0.11688931297709934,-0.04420229007633425,0.0005402832031249707,0.0015867919921875445,0.9995651855468739
280,-0.06179007633587785,-0.02528625954198485,0.0626679389312994,-0.004098388671875029,-0.0037843017578124555,1.001030029296874
281,0.07561450381679391,0.1502862595419846,-0.021301526717555586,0.0029816894531249707,0.00012194824218754452,0.9939499511718739
282,0.02981297709923658,0.0357824427480915,-0.006034351145036476,0.0007844238281249707,0.0028074951171875445,1.001030029296874
283,0.02981297709923658,0.00524809160305334,-0.006034351145036476,-0.00043627929687502925,0.0047606201171875445,0.9998093261718739
284,-0.13049236641221373,0.05104961832061056,0.024500000000001743,0.0012727050781249707,-0.0015870361328124555,1.001030029296874
285,-0.015988549618320747,-0.010019083969465742,0.016866412213742077,-0.0026335449218750293,0.0023192138671875445,1.001762451171874
286,0.022179389312976916,0.02814885496183195,-0.036568702290074695,-0.00043627929687502925,-0.0013428955078124555,0.9993210449218739
287,-0.06942366412213752,-0.15505725190839706,-0.013667938931296142,-0.0011687011718750293,0.0003660888671875445,1.001762451171874
288,0.037446564885496025,0.11975190839694644,0.024500000000001743,0.003958251953124971,-0.00012219238281245548,1.004936279296874
289,-0.04652290076335874,0.02814885496183195,0.009232824427482633,-0.0016569824218750293,-0.00012219238281245548,0.9971237792968739
290,-0.031255725190839856,-0.04055343511450393,0.07793511450381851,-0.0021452636718750293,-0.0018311767578124555,0.9976120605468739
291,-0.02362213740458019,0.00524809160305334,0.05503435114503974,-0.0014128417968750293,-0.0010987548828124555,1.001030029296874
292,0.006912213740458029,0.02814885496183195,0.0015992366412229675,0.0024934082031249707,0.0035399169921875445,0.9944382324218739
293,-0.0007213740458016371,0.07395038167938922,-0.05946946564885325,-0.0014128417968750293,-0.0006104736328124555,1.002983154296874
294,0.06798091603053424,0.0357824427480915,-0.04420229007633425,5.2001953124970746e-05,-0.0013428955078124555,1.001030029296874
295,0.037446564885496025,-0.03291984732824438,-0.07473664122137236,-0.004098388671875029,-0.0010987548828124555,0.9976120605468739
296,0.04508015267175569,-0.04055343511450393,-0.021301526717555586,0.0017609863281249707,-0.0015870361328124555,1.000541748046874
297,-0.05415648854961841,-0.04818702290076346,-0.07473664122137236,0.003958251953124971,-0.0013428955078124555,1.001274169921874
298,0.0603473282442748,-0.04055343511450393,0.032133587786261186,0.0017609863281249707,-0.0020753173828124555,1.002250732421874
299,0.0603473282442748,-0.0710877862595421,-0.021301526717555586,5.2001953124970746e-05,-0.0028077392578124555,0.9966354980468739
300,0.07561450381679391,-0.04055343511450393,-0.04420229007633425,0.0010285644531249707,0.0035399169921875445,0.9993210449218739
301,0.006912213740458029,-0.055820610687023015,-0.07473664122137236,0.0029816894531249707,0.0025633544921875445,1.001762451171874
302,-0.031255725190839856,0.07395038167938922,-0.021301526717555586,0.0017609863281249707,-0.0018311767578124555,1.002983154296874
303,-0.02362213740458019,-0.010019083969465742,-0.02893511450381514,0.00029614257812497075,-0.0057374267578124555,1.000297607421874
304,-0.02362213740458019,-0.002385496183206215,-0.036568702290074695,5.2001953124970746e-05,0.0010985107421875445,0.9976120605468739
305,0.022179389312976916,0.02814885496183195,-0.013667938931296142,-0.0036101074218750293,0.0015867919921875445,1.006401123046874
306,-0.0007213740458016371,0.02814885496183195,-0.09000381679389147,0.0017609863281249707,-0.0040284423828124555,1.000053466796874
307,-0.02362213740458019,0.0357824427480915,-0.04420229007633425,-0.00043627929687502925,0.0023192138671875445,0.9951706542968739
308,-0.04652290076335874,0.05868320610687011,-0.18924045801526546,5.2001953124970746e-05,0.0032957763671875445,0.9983444824218739
309,0.022179389312976916,0.00524809160305334,-0.036568702290074695,0.0007844238281249707,0.00012194824218754452,1.002494873046874
310,0.006912213740458029,0.02814885496183195,-0.013667938931296142,0.0005402832031249707,0.0003660888671875445,1.000297607421874
311,-0.0007213740458016371,0.00524809160305334,-0.09000381679389147,-0.00043627929687502925,0.00012194824218754452,1.002983154296874
312,-0.02362213740458019,0.012881679389312867,-0.0671030534351128,-0.0023894042968750293,-0.0018311767578124555,0.9978562011718739
313,0.014545801526717472,-0.10162213740458026,-0.036568702290074695,0.0012727050781249707,0.00012194824218754452,1.000541748046874
314,0.13668320610687013,-0.017652671755725297,-0.051835877862593804,0.0015168457031249707,0.0030516357421875445,1.004692138671874
315,-0.02362213740458019,-0.07872137404580164,-0.12053816793892969,0.003958251953124971,0.0010985107421875445,0.9985886230468739
316,0.006912213740458029,0.05104961832061056,-0.02893511450381514,-0.0031218261718750293,-0.0010987548828124555,1.001762451171874
317,-0.06942366412213752,0.06631679389312967,-0.10527099236641058,0.0010285644531249707,0.0008543701171875445,0.9985886230468739
318,-0.02362213740458019,-0.002385496183206215,-0.09000381679389147,-0.0014128417968750293,-0.0018311767578124555,1.003715576171874
319,-0.02362213740458019,0.00524809160305334,-0.013667938931296142,-0.0023894042968750293,-0.0006104736328124555,0.9993210449218739
320,0.0603473282442748,0.04341603053435103,-0.07473664122137236,-0.004098388671875029,0.0008543701171875445,1.003227294921874
321,-0.1381259541984734,0.07395038167938922,-0.08237022900763191,-0.0011687011718750293,-0.00012219238281245548,0.9944382324218739
322,-0.05415648854961841,-0.03291984732824438,0.0015992366412229675,0.0010285644531249707,-0.00012219238281245548,0.9983444824218739
323,-0.06179007633587785,0.0357824427480915,-0.05946946564885325,0.005423095703124971,-0.0015870361328124555,1.003471435546874
324,-0.031255725190839856,-0.10162213740458026,0.016866412213742077,0.0005402832031249707,-0.0006104736328124555,0.9993210449218739
325,0.07561450381679391,-0.002385496183206215,-0.196874045801525,0.0017609863281249707,-0.0018311767578124555,0.9976120605468739
326,0.04508015267175569,0.04341603053435103,-0.07473664122137236,-0.00043627929687502925,-0.0045167236328124555,0.9963913574218739
327,0.04508015267175569,-0.017652671755725297,-0.006034351145036476,0.004202392578124971,-0.0025635986328124555,0.9995651855468739
328,-0.1381259541984734,0.00524809160305334,-0.07473664122137236,0.0032258300781249707,0.0008543701171875445,0.9976120605468739
329,-0.05415648854961841,-0.02528625954198485,-0.051835877862593804,-0.0026335449218750293,0.0047606201171875445,0.9983444824218739
330,-0.09232442748091607,0.02051526717557242,0.032133587786261186,0.0037141113281249707,0.0015867919921875445,1.000053466796874
331,-0.031255725190839856,0.00524809160305334,0.016866412213742077,0.0037141113281249707,0.0015867919921875445,0.9973679199218739
332,0.006912213740458029,0.09685114503816783,0.03976717557252085,0.007132080078124971,-0.00012219238281245548,1.000297607421874
333,0.014545801526717472,-0.017652671755725297,0.10083587786259707,0.0012727050781249707,-0.0003663330078124555,0.9976120605468739
334,-0.02362213740458019,0.00524809160305334,0.016866412213742077,0.0012727050781249707,0.0013426513671875445,1.002983154296874
335,-0.06179007633587785,-0.04818702290076346,0.07793511450381851,0.0034699707031249707,0.0010985107421875445,0.9937058105468739
336,-0.0388893129770993,0.05104961832061056,0.0015992366412229675,-0.0016569824218750293,-0.0025635986328124555,0.9937058105468739
337,-0.04652290076335874,-0.010019083969465742,0.0626679389312994,-0.0009245605468750293,-0.0013428955078124555,0.9985886230468739
338,0.014545801526717472,-0.06345419847328254,0.03976717557252085,-0.0011687011718750293,-0.0018311767578124555,1.003471435546874
339,0.022179389312976916,-0.08635496183206118,0.07793511450381851,-0.0014128417968750293,0.0040281982421875445,1.000541748046874
340,-0.0388893129770993,-0.03291984732824438,0.047400763358780296,0.0010285644531249707,0.0015867919921875445,0.9954147949218739
341,-0.0007213740458016371,-0.03291984732824438,0.10083587786259707,0.0029816894531249707,0.0042723388671875445,1.004936279296874
342,0.006912213740458029,0.08921755725190827,0.0626679389312994,0.0005402832031249707,0.0008543701171875445,0.9985886230468739
343,0.07561450381679391,0.02814885496183195,0.03976717557252085,0.0024934082031249707,-0.0010987548828124555,0.9954147949218739
344,-0.02362213740458019,-0.04055343511450393,0.07030152671755885,-0.0009245605468750293,0.0008543701171875445,1.006401123046874
345,0.04508015267175569,-0.002385496183206215,-0.021301526717555586,-0.00019213867187502925,-0.0018311767578124555,1.000541748046874
346,-0.00835496183206108,0.00524809160305334,-0.05946946564885325,-0.00019213867187502925,-0.0030518798828124555,1.000785888671874
347,0.022179389312976916,-0.017652671755725297,0.0626679389312994,0.004202392578124971,-0.0015870361328124555,0.9973679199218739
348,-0.0388893129770993,-0.017652671755725297,0.07030152671755885,-0.0014128417968750293,0.0010985107421875445,0.9959030761718739
349,0.04508015267175569,0.02814885496183195,-0.051835877862593804,-0.0009245605468750293,0.0008543701171875445,0.9968796386718739
350,-0.031255725190839856,-0.04818702290076346,0.12373664122137562,-0.004342529296875029,0.00012194824218754452,1.000785888671874
351,-0.031255725190839856,0.00524809160305334,0.08556870229007796,0.0027375488281249707,0.0023192138671875445,1.004447998046874
352,0.006912213740458029,0.00524809160305334,0.07030152671755885,0.0024934082031249707,0.0035399169921875445,0.9959030761718739
353,0.006912213740458029,0.02051526717557242,0.08556870229007796,-0.0016569824218750293,0.0025633544921875445,0.9949265136718739
354,-0.031255725190839856,-0.04818702290076346,-0.05946946564885325,-0.0011687011718750293,0.0059813232421875445,1.007133544921874
355,-0.0007213740458016371,-0.11688931297709934,0.0015992366412229675,0.0037141113281249707,-0.0003663330078124555,0.9983444824218739
356,-0.0388893129770993,-0.07872137404580164,0.03976717557252085,-0.00019213867187502925,-0.0035401611328124555,0.9966354980468739
357,-0.00835496183206108,-0.010019083969465742,0.0015992366412229675,-0.0021452636718750293,-0.0052491455078124555,1.007865966796874
358,-0.06179007633587785,-0.06345419847328254,-0.021301526717555586,-0.004098388671875029,-0.0059815673828124555,1.001762451171874
359,0.014545801526717472,0.02051526717557242,-0.006034351145036476,0.0015168457031249707,-0.0015870361328124555,0.9949265136718739
360,-0.04652290076335874,-0.07872137404580164,0.09320229007633762,-0.0023894042968750293,0.0015867919921875445,1.001518310546874
361,-0.06179007633587785,-0.11688931297709934,0.08556870229007796,0.00029614257812497075,0.0013426513671875445,0.9993210449218739
362,0.022179389312976916,0.02814885496183195,0.18480534351145206,0.004690673828124971,0.0010985107421875445,0.9985886230468739
363,0.037446564885496025,0.05868320610687011,0.11610305343511618,5.2001953124970746e-05,0.0003660888671875445,1.001030029296874
364,0.06798091603053424,0.02051526717557242,-0.021301526717555586,0.0020051269531249707,-0.0008546142578124555,1.000053466796874
365,0.02981297709923658,-0.0710877862595421,0.13900381679389473,0.0020051269531249707,0.0045164794921875445,1.006401123046874
366,-0.04652290076335874,0.05868320610687011,0.07793511450381851,0.0029816894531249707,-0.0008546142578124555,0.9956589355468739
367,-0.015988549618320747,-0.055820610687023015,0.024500000000001743,0.005911376953124971,-0.0010987548828124555,0.9998093261718739
368,-0.06942366412213752,-0.02528625954198485,0.0015992366412229675,0.004934814453124971,0.0020750732421875445,0.9990769042968739
369,-0.0007213740458016371,0.02814885496183195,0.09320229007633762,0.00029614257812497075,0.0028074951171875445,0.9993210449218739
370,0.022179389312976916,-0.06345419847328254,0.07030152671755885,0.0007844238281249707,0.0006102294921875445,1.000297607421874
371,0.0603473282442748,-0.010019083969465742,0.047400763358780296,0.006155517578124971,0.0030516357421875445,1.000053466796874
372,-0.06942366412213752,0.04341603053435103,0.09320229007633762,-0.00043627929687502925,-0.00012219238281245548,0.9988327636718739
373,-0.05415648854961841,0.04341603053435103,0.07793511450381851,-0.0031218261718750293,0.0018309326171875445,1.000297607421874
374,-0.06942366412213752,0.0357824427480915,0.016866412213742077,-0.0009245605468750293,-0.0037843017578124555,0.9954147949218739
375,0.02981297709923658,0.04341603053435103,0.11610305343511618,0.0012727050781249707,0.0013426513671875445,0.9983444824218739
376,-0.08469083969465663,0.012881679389312867,-0.02893511450381514,-0.0021452636718750293,-0.0013428955078124555,1.004447998046874
377,-0.02362213740458019,-0.03291984732824438,0.0626679389312994,-0.0006804199218750293,-0.0050050048828124555,1.001030029296874
378,0.04508015267175569,-0.055820610687023015,0.07030152671755885,-0.0006804199218750293,0.0020750732421875445,0.9981003417968739
379,0.08324809160305335,0.012881679389312867,-0.006034351145036476,-0.0023894042968750293,0.0035399169921875445,0.9968796386718739
380,-0.031255725190839856,-0.03291984732824438,0.09320229007633762,0.0007844238281249707,-0.0020753173828124555,0.9934616699218739
381,-0.031255725190839856,-0.010019083969465742,-0.02893511450381514,5.2001953124970746e-05,0.00012194824218754452,1.003471435546874
382,-0.031255725190839856,-0.02528625954198485,0.11610305343511618,-0.00043627929687502925,0.0010985107421875445,1.000297607421874
383,0.037446564885496025,0.02814885496183195,0.07030152671755885,-0.0028776855468750293,-0.0020753173828124555,0.9990769042968739
384,0.006912213740458029,0.05104961832061056,0.10846946564885673,0.0017609863281249707,0.0064696044921875445,0.9983444824218739
385,0.022179389312976916,0.08158396946564878,0.08556870229007796,0.0027375488281249707,-0.0006104736328124555,1.006156982421874
386,0.014545801526717472,0.04341603053435103,0.07030152671755885,5.2001953124970746e-05,0.0003660888671875445,1.006156982421874
387,-0.015988549618320747,-0.02528625954198485,-0.021301526717555586,0.0010285644531249707,0.0023192138671875445,1.004936279296874
388,0.052713740458015135,0.04341603053435103,0.0015992366412229675,-0.004098388671875029,-0.0008546142578124555,1.001274169921874
389,-0.06942366412213752,0.012881679389312867,0.18480534351145206,0.0024934082031249707,0.0030516357421875445,0.9961472167968739
390,0.037446564885496025,0.0357824427480915,0.0626679389312994,0.0037141113281249707,0.0015867919921875445,0.9995651855468739
391,0.014545801526717472,0.012881679389312867,0.11610305343511618,0.0012727050781249707,0.0006102294921875445,0.9978562011718739
392,-0.00835496183206108,-0.010019083969465742,0.11610305343511618,-0.0006804199218750293,-0.0032960205078124555,1.002739013671874
393,0.014545801526717472,-0.017652671755725297,0.12373664122137562,0.0010285644531249707,-0.0035401611328124555,0.9944382324218739
394,-0.00835496183206108,0.012881679389312867,0.07030152671755885,0.0029816894531249707,0.0037840576171875445,0.9985886230468739
395,0.08324809160305335,-0.06345419847328254,0.024500000000001743,0.0022492675781249707,0.0006102294921875445,0.9949265136718739
396,0.052713740458015135,-0.09398854961832072,0.05503435114503974,0.0007844238281249707,0.0020750732421875445,1.003227294921874
397,0.12141603053435102,0.00524809160305334,-0.021301526717555586,5.2001953124970746e-05,0.0003660888671875445,1.001030029296874
398,-0.14575954198473284,-0.010019083969465742,-0.04420229007633425,0.00029614257812497075,0.0006102294921875445,1.001518310546874
399,-0.00835496183206108,-0.02528625954198485,0.024500000000001743,-0.0014128417968750293,0.0028074951171875445,1.001518310546874
400,0.014545801526717472,-0.06345419847328254,0.03976717557252085,0.00029614257812497075,-0.0018311767578124555,1.000053466796874
401,0.052713740458015135,0.012881679389312867,0.08556870229007796,0.0015168457031249707,0.0010985107421875445,1.001518310546874
402,-0.04652290076335874,-0.04818702290076346,-0.036568702290074695,-0.0021452636718750293,0.0010985107421875445,1.002006591796874
403,-0.015988549618320747,0.0357824427480915,-0.07473664122137236,-0.00043627929687502925,-0.0023194580078124555,1.000053466796874
404,-0.0007213740458016371,0.0357824427480915,0.08556870229007796,-0.0019011230468750293,0.0032957763671875445,0.9971237792968739
405,0.006912213740458029,0.10448473282442738,-0.021301526717555586,-0.0036101074218750293,-0.0023194580078124555,1.000785888671874
406,-0.0388893129770993,0.00524809160305334,0.016866412213742077,0.0029816894531249707,0.0023192138671875445,0.9995651855468739
407,-0.0388893129770993,-0.04055343511450393,0.09320229007633762,-0.0011687011718750293,-0.0018311767578124555,0.9973679199218739
408,0.04508015267175569,0.012881679389312867,0.11610305343511618,-0.0009245605468750293,0.0006102294921875445,1.001518310546874
409,0.006912213740458029,-0.11688931297709934,0.0015992366412229675,0.0007844238281249707,0.0003660888671875445,1.002983154296874
410,0.006912213740458029,0.08921755725190827,-0.036568702290074695,0.0015168457031249707,-0.0010987548828124555,0.9890671386718739
411,0.07561450381679391,0.0357824427480915,0.12373664122137562,5.2001953124970746e-05,0.0008543701171875445,0.9971237792968739
412,-0.06942366412213752,-0.06345419847328254,-0.051835877862593804,-0.00019213867187502925,0.0003660888671875445,0.9961472167968739
413,-0.02362213740458019,0.0357824427480915,0.032133587786261186,0.0034699707031249707,0.0003660888671875445,1.001762451171874
414,0.06798091603053424,0.05104961832061056,0.0015992366412229675,-0.00019213867187502925,0.0008543701171875445,1.000297607421874
415,0.014545801526717472,0.02814885496183195,0.024500000000001743,-0.0031218261718750293,0.0010985107421875445,0.9988327636718739
416,0.07561450381679391,-0.03291984732824438,-0.05946946564885325,-0.00043627929687502925,-0.0010987548828124555,0.9981003417968739
417,0.022179389312976916,-0.02528625954198485,-0.051835877862593804,0.0012727050781249707,0.0032957763671875445,0.9993210449218739
418,0.02981297709923658,-0.04055343511450393,-0.04420229007633425,-0.0021452636718750293,0.00012194824218754452,1.001274169921874
419,-0.05415648854961841,0.08158396946564878,-0.04420229007633425,-0.0031218261718750293,0.0003660888671875445,0.9976120605468739
420,0.014545801526717472,0.08158396946564878,-0.13580534351144868,-0.00043627929687502925,-0.0030518798828124555,1.003471435546874
421,-0.08469083969465663,0.05104961832061056,-0.006034351145036476,-0.0026335449218750293,0.0032957763671875445,1.003471435546874
422,0.06798091603053424,-0.055820610687023015,-0.0671030534351128,-0.00043627929687502925,0.0013426513671875445,0.9995651855468739
423,0.037446564885496025,-0.055820610687023015,-0.07473664122137236,-0.0033659667968750293,-0.0032960205078124555,0.9998093261718739
424,0.006912213740458029,0.02051526717557242,0.11610305343511618,-0.0028776855468750293,0.0006102294921875445,0.9988327636718739
425,0.09851526717557246,-0.10162213740458026,-0.036568702290074695,0.0015168457031249707,0.0028074951171875445,0.9993210449218739
426,0.08324809160305335,-0.10162213740458026,0.016866412213742077,-0.0011687011718750293,-0.008178833007812455,1.009086669921874
427,0.06798091603053424,0.05104961832061056,-0.08237022900763191,5.2001953124970746e-05,-0.0028077392578124555,0.9937058105468739
428,0.04508015267175569,-0.010019083969465742,-0.021301526717555586,-0.0026335449218750293,0.0030516357421875445,0.9998093261718739
429,-0.00835496183206108,0.00524809160305334,-0.11290458015267013,0.0007844238281249707,-0.00012219238281245548,0.9981003417968739
430,-0.04652290076335874,-0.04818702290076346,-0.006034351145036476,0.0024934082031249707,-0.0025635986328124555,1.004936279296874
431,-0.04652290076335874,-0.02528625954198485,-0.021301526717555586,-0.0009245605468750293,0.0037840576171875445,1.000541748046874
432,-0.02362213740458019,-0.06345419847328254,-0.05946946564885325,-0.00019213867187502925,-0.0042725830078124555,1.000785888671874
433,-0.00835496183206108,0.09685114503816783,-0.006034351145036476,0.0024934082031249707,-0.00012219238281245548,1.002006591796874
434,0.014545801526717472,-0.055820610687023015,0.0015992366412229675,-0.0019011230468750293,0.0003660888671875445,0.9966354980468739
435,0.02981297709923658,0.00524809160305334,-0.10527099236641058,0.0015168457031249707,-0.0010987548828124555,1.002006591796874
436,-0.0007213740458016371,0.02814885496183195,-0.006034351145036476,0.0007844238281249707,0.0013426513671875445,0.9981003417968739
437,-0.06179007633587785,-0.055820610687023015,-0.0671030534351128,5.2001953124970746e-05,0.0025633544921875445,0.9946823730468739
438,-0.015988549618320747,0.02051526717557242,-0.05946946564885325,0.0022492675781249707,0.0015867919921875445,1.001274169921874
439,-0.015988549618320747,0.05104961832061056,-0.05946946564885325,-0.0006804199218750293,0.0006102294921875445,0.9971237792968739
440,-0.00835496183206108,0.02051526717557242,-0.10527099236641058,0.0017609863281249707,0.0006102294921875445,1.003471435546874
441,0.037446564885496025,-0.03291984732824438,-0.036568702290074695,-0.0031218261718750293,0.0015867919921875445,0.9981003417968739
442,-0.02362213740458019,0.04341603053435103,0.016866412213742077,0.0034699707031249707,0.0008543701171875445,1.002494873046874
443,0.02981297709923658,-0.03291984732824438,0.0015992366412229675,-0.0014128417968750293,0.0010985107421875445,0.9983444824218739
444,0.022179389312976916,0.10448473282442738,0.009232824427482633,-0.0016569824218750293,-0.0040284423828124555,0.9988327636718739
445,-0.09232442748091607,-0.017652671755725297,0.0015992366412229675,0.0024934082031249707,-0.0006104736328124555,1.005668701171874
446,0.0603473282442748,-0.02528625954198485,0.0626679389312994,-0.0009245605468750293,0.0013426513671875445,1.003959716796874
447,-0.015988549618320747,0.02814885496183195,-0.036568702290074695,0.0017609863281249707,0.0042723388671875445,1.004936279296874
448,-0.031255725190839856,0.00524809160305334,0.024500000000001743,5.2001953124970746e-05,-0.0015870361328124555,1.005668701171874
449,-0.0007213740458016371,-0.04055343511450393,-0.10527099236641058,-0.00019213867187502925,-0.0013428955078124555,1.002250732421874
450,0.1443167938931298,0.02051526717557242,-0.02893511450381514,0.0017609863281249707,-0.0010987548828124555,0.9988327636718739
451,0.014545801526717472,0.02814885496183195,-0.07473664122137236,-0.0016569824218750293,0.0008543701171875445,1.001030029296874
452,0.037446564885496025,0.08158396946564878,0.09320229007633762,-0.00043627929687502925,-0.0015870361328124555,0.9990769042968739
453,0.006912213740458029,0.04341603053435103,0.07030152671755885,0.0010285644531249707,0.0010985107421875445,0.9978562011718739
454,-0.0007213740458016371,0.00524809160305334,0.047400763358780296,0.0005402832031249707,0.0003660888671875445,0.9995651855468739
455,-0.031255725190839856,-0.010019083969465742,-0.013667938931296142,0.003958251953124971,-0.0025635986328124555,1.008110107421874
456,0.037446564885496025,-0.09398854961832072,-0.08237022900763191,0.0012727050781249707,0.0028074951171875445,0.9985886230468739
457,-0.015988549618320747,-0.04818702290076346,0.016866412213742077,-0.005807373046875029,0.0013426513671875445,0.9973679199218739
458,0.04508015267175569,-0.02528625954198485,-0.006034351145036476,0.0017609863281249707,-0.0020753173828124555,1.018852294921874
459,0.1443167938931298,-0.07872137404580164,0.024500000000001743,-0.0021452636718750293,0.0010985107421875445,0.9985886230468739
460,0.037446564885496025,0.07395038167938922,0.016866412213742077,0.0029816894531249707,0.00012194824218754452,1.000541748046874
461,0.052713740458015135,-0.02528625954198485,0.07793511450381851,0.0027375488281249707,0.0020750732421875445,0.9971237792968739
462,-0.031255725190839856,0.10448473282442738,-0.013667938931296142,-0.00019213867187502925,-0.00012219238281245548,0.9998093261718739
463,0.0603473282442748,0.04341603053435103,-0.051835877862593804,-0.0006804199218750293,-0.0010987548828124555,0.9934616699218739
464,-0.015988549618320747,-0.002385496183206215,-0.04420229007633425,-0.0009245605468750293,-0.0052491455078124555,0.9988327636718739
465,-0.07705725190839696,-0.10162213740458026,-0.12817175572518913,0.0015168457031249707,-0.0006104736328124555,0.9995651855468739
466,0.07561450381679391,0.00524809160305334,0.024500000000001743,0.0015168457031249707,-0.0032960205078124555,1.001274169921874
467,-0.06942366412213752,-0.03291984732824438,-0.0671030534351128,0.0020051269531249707,-0.0028077392578124555,1.001030029296874
468,-0.0007213740458016371,0.05104961832061056,0.016866412213742077,0.004934814453124971,-0.0008546142578124555,1.001030029296874
469,-0.05415648854961841,0.02051526717557242,0.12373664122137562,-0.00019213867187502925,0.0008543701171875445,0.9993210449218739
470,0.08324809160305335,0.02814885496183195,0.032133587786261186,-0.0026335449218750293,-0.0006104736328124555,0.9981003417968739
471,-0.08469083969465663,-0.02528625954198485,-0.02893511450381514,-0.0006804199218750293,-0.0023194580078124555,1.001762451171874
472,0.022179389312976916,-0.010019083969465742,-0.02893511450381514,-0.0006804199218750293,0.0015867919921875445,1.000785888671874
473,0.014545801526717472,-0.017652671755725297,0.024500000000001743,5.2001953124970746e-05,0.0054930419921875445,0.9959030761718739
474,0.04508015267175569,0.012881679389312867,0.024500000000001743,5.2001953124970746e-05,0.0006102294921875445,0.9990769042968739
475,0.006912213740458029,0.0357824427480915,-0.15870610687022735,0.0020051269531249707,-0.0042725830078124555,0.9990769042968739
476,0.006912213740458029,-0.06345419847328254,0.024500000000001743,-0.00043627929687502925,-0.0028077392578124555,0.9995651855468739
477,-0.02362213740458019,0.02814885496183195,-0.05946946564885325,-0.0014128417968750293,0.0023192138671875445,0.9959030761718739
478,0.0603473282442748,0.00524809160305334,-0.006034351145036476,-0.0011687011718750293,0.0028074951171875445,1.005912841796874
479,-0.015988549618320747,0.02051526717557242,-0.036568702290074695,-0.004098388671875029,-0.0008546142578124555,1.001762451171874
480,0.02981297709923658,-0.02528625954198485,-0.08237022900763191,0.0022492675781249707,-0.0008546142578124555,0.9973679199218739
481,-0.0388893129770993,-0.03291984732824438,-0.08237022900763191,0.00029614257812497075,-0.0018311767578124555,1.000297607421874
482,-0.031255725190839856,0.00524809160305334,-0.013667938931296142,-0.0026335449218750293,0.0003660888671875445,1.001030029296874
483,-0.00835496183206108,0.04341603053435103,0.016866412213742077,-0.00019213867187502925,0.0003660888671875445,0.9998093261718739
484,-0.031255725190839856,0.05104961832061056,-0.013667938931296142,-0.0016569824218750293,0.0008543701171875445,0.9988327636718739
485,0.06798091603053424,-0.04055343511450393,0.12373664122137562,-0.00019213867187502925,-0.0006104736328124555,0.9941940917968739
486,-0.05415648854961841,-0.010019083969465742,0.009232824427482633,0.0015168457031249707,0.0032957763671875445,0.9981003417968739
487,-0.06942366412213752,0.02051526717557242,0.07793511450381851,0.0005402832031249707,0.0010985107421875445,0.9993210449218739
488,0.02981297709923658,-0.09398854961832072,0.05503435114503974,0.0007844238281249707,-0.0008546142578124555,0.9956589355468739
489,0.08324809160305335,-0.04818702290076346,-0.036568702290074695,-0.0031218261718750293,0.0008543701171875445,1.002494873046874
490,-0.05415648854961841,-0.002385496183206215,0.07030152671755885,0.0020051269531249707,-0.0028077392578124555,1.000297607421874
491,-0.0007213740458016371,-0.04055343511450393,0.032133587786261186,0.0027375488281249707,0.0023192138671875445,0.9981003417968739
492,-0.02362213740458019,-0.04055343511450393,0.05503435114503974,5.2001953124970746e-05,0.0018309326171875445,1.002250732421874
493,-0.05415648854961841,0.0357824427480915,-0.006034351145036476,0.0012727050781249707,0.0003660888671875445,0.9959030761718739
494,0.04508015267175569,0.02051526717557242,-0.02893511450381514,0.0024934082031249707,0.0020750732421875445,0.9990769042968739
495,0.0603473282442748,-0.002385496183206215,0.024500000000001743,-0.0014128417968750293,0.0059813232421875445,0.9998093261718739
496,0.06798091603053424,-0.16269083969465659,0.03976717557252085,0.00029614257812497075,-0.0006104736328124555,0.9973679199218739
497,-0.00835496183206108,-0.08635496183206118,0.03976717557252085,0.0015168457031249707,0.0032957763671875445,0.9993210449218739
498,-0.015988549618320747,0.02051526717557242,0.047400763358780296,-0.00019213867187502925,0.0008543701171875445,0.9951706542968739
499,0.052713740458015135,0.05104961832061056,0.009232824427482633,0.0005402832031249707,0.0018309326171875445,1.000053466796874
500,0.07561450381679391,0.02814885496183195,-0.0671030534351128,0.0034699707031249707,-0.0028077392578124555,0.9995651855468739
501,-0.0388893129770993,0.00524809160305334,0.07793511450381851,-0.00019213867187502925,0.0023192138671875445,0.9966354980468739
502,-0.031255725190839856,-0.06345419847328254,-0.10527099236641058,0.0024934082031249707,-0.0008546142578124555,1.000297607421874
503,-0.0388893129770993,-0.04055343511450393,0.05503435114503974,0.0015168457031249707,0.0010985107421875445,1.004447998046874
504,-0.0007213740458016371,0.02814885496183195,0.0015992366412229675,0.0007844238281249707,0.0023192138671875445,1.002983154296874
505,0.052713740458015135,-0.04055343511450393,0.0015992366412229675,0.0015168457031249707,0.0028074951171875445,1.001274169921874
506,-0.06179007633587785,-0.002385496183206215,0.0015992366412229675,0.0037141113281249707,-0.0015870361328124555,1.001030029296874
507,-0.04652290076335874,0.07395038167938922,0.016866412213742077,0.0027375488281249707,0.0013426513671875445,1.003471435546874
508,0.02981297709923658,-0.017652671755725297,0.03976717557252085,-0.0019011230468750293,0.0028074951171875445,0.9961472167968739
509,-0.0388893129770993,0.127385496183206,-0.05946946564885325,0.0029816894531249707,0.00012194824218754452,0.9949265136718739
510,-0.10759160305343518,-0.04055343511450393,0.009232824427482633,-0.0031218261718750293,-0.0023194580078124555,0.9961472167968739
511,-0.0388893129770993,-0.03291984732824438,0.016866412213742077,0.0017609863281249707,0.0013426513671875445,0.9973679199218739
512,-0.015988549618320747,-0.04818702290076346,-0.05946946564885325,0.005178955078124971,-0.0030518798828124555,1.000785888671874
513,-0.02362213740458019,0.02814885496183195,0.016866412213742077,5.2001953124970746e-05,-0.0006104736328124555,0.9897995605468739
514,0.037446564885496025,0.02051526717557242,0.0626679389312994,-0.004098388671875029,-0.0028077392578124555,0.9981003417968739
515,-0.04652290076335874,-0.055820610687023015,-0.12817175572518913,0.0012727050781249707,-0.0015870361328124555,1.004447998046874
516,-0.00835496183206108,-0.02528625954198485,-0.10527099236641058,-0.0028776855468750293,-0.0032960205078124555,0.9983444824218739
517,0.06798091603053424,-0.017652671755725297,-0.036568702290074695,0.0020051269531249707,-0.00012219238281245548,1.000053466796874
518,-0.12285877862595429,0.02051526717557242,0.024500000000001743,0.0005402832031249707,0.0018309326171875445,1.002250732421874
519,-0.031255725190839856,0.012881679389312867,0.016866412213742077,-0.0014128417968750293,-0.0006104736328124555,0.9954147949218739
520,0.006912213740458029,-0.02528625954198485,0.016866412213742077,-0.0006804199218750293,-0.0003663330078124555,0.9988327636718739
521,0.014545801526717472,-0.010019083969465742,0.11610305343511618,-0.0023894042968750293,0.0013426513671875445,0.9944382324218739
522,-0.0388893129770993,-0.02528625954198485,-0.02893511450381514,-0.00043627929687502925,-0.0013428955078124555,0.9988327636718739
523,0.022179389312976916,-0.0710877862595421,-0.04420229007633425,0.0024934082031249707,0.0003660888671875445,1.000785888671874
524,0.04508015267175569,-0.010019083969465742,-0.013667938931296142,0.0010285644531249707,0.0023192138671875445,0.9978562011718739
525,-0.0007213740458016371,-0.010019083969465742,-0.11290458015267013,0.0005402832031249707,0.0020750732421875445,1.002006591796874
526,-0.09995801526717574,-0.02528625954198485,-0.05946946564885325,-0.0011687011718750293,0.0045164794921875445,1.005912841796874
527,0.09851526717557246,0.02051526717557242,-0.07473664122137236,-0.0038542480468750293,0.0010985107421875445,0.9973679199218739
528,0.07561450381679391,0.00524809160305334,-0.17397328244274646,-0.00043627929687502925,-0.0025635986328124555,1.003959716796874
529,-0.031255725190839856,0.00524809160305334,0.0015992366412229675,-0.005074951171875029,0.0050047607421875445,1.003715576171874
530,0.04508015267175569,0.00524809160305334,0.009232824427482633,0.004446533203124971,-0.0006104736328124555,0.9912644042968739
531,0.014545801526717472,0.05104961832061056,0.05503435114503974,0.0017609863281249707,0.0020750732421875445,1.007865966796874
532,-0.05415648854961841,0.17318702290076327,0.032133587786261186,-0.0006804199218750293,0.00012194824218754452,1.018608154296874
533,0.014545801526717472,0.02051526717557242,0.009232824427482633,0.0007844238281249707,-0.0015870361328124555,1.000541748046874
534,0.052713740458015135,-0.04055343511450393,-0.013667938931296142,0.0032258300781249707,-0.0013428955078124555,0.9917526855468739
535,-0.015988549618320747,0.07395038167938922,0.009232824427482633,-0.004342529296875029,-0.0023194580078124555,0.9985886230468739
536,0.022179389312976916,-0.04818702290076346,-0.0671030534351128,-0.0031218261718750293,0.0015867919921875445,1.000541748046874
537,0.037446564885496025,-0.04818702290076346,0.07030152671755885,0.0032258300781249707,-0.0008546142578124555,0.9937058105468739
538,0.006912213740458029,-0.017652671755725297,0.024500000000001743,0.0029816894531249707,-0.0006104736328124555,0.9966354980468739
539,-0.00835496183206108,0.02814885496183195,0.024500000000001743,-0.0006804199218750293,0.0003660888671875445,1.003715576171874
540,-0.0007213740458016371,0.05104961832061056,-0.013667938931296142,0.0012727050781249707,-0.0023194580078124555,0.9959030761718739
541,-0.00835496183206108,-0.04055343511450393,0.016866412213742077,0.0020051269531249707,-0.0003663330078124555,0.9968796386718739
542,0.09851526717557246,-0.02528625954198485,0.047400763358780296,-0.0006804199218750293,-0.0003663330078124555,0.9995651855468739
543,-0.0007213740458016371,0.0357824427480915,-0.02893511450381514,0.00786450195312497,-0.00012219238281245548,1.000541748046874
544,-0.02362213740458019,0.07395038167938922,0.0015992366412229675,0.004446533203124971,-0.0023194580078124555,1.000541748046874
545,0.014545801526717472,-0.06345419847328254,0.1313702290076353,0.0029816894531249707,0.0008543701171875445,1.002494873046874
546,-0.09995801526717574,-0.010019083969465742,0.0015992366412229675,0.0005402832031249707,0.0008543701171875445,1.000541748046874
547,-0.0007213740458016371,-0.04055343511450393,0.0015992366412229675,-0.0006804199218750293,0.0008543701171875445,0.9966354980468739
548,0.022179389312976916,-0.06345419847328254,0.0015992366412229675,0.0017609863281249707,0.0003660888671875445,0.9998093261718739
549,-0.015988549618320747,-0.03291984732824438,-0.08237022900763191,0.0037141113281249707,0.0008543701171875445,0.9983444824218739
550,0.0603473282442748,-0.04818702290076346,-0.013667938931296142,-0.00043627929687502925,-0.0025635986328124555,0.9981003417968739
551,-0.00835496183206108,-0.055820610687023015,0.032133587786261186,-0.0006804199218750293,0.0008543701171875445,1.004692138671874
552,0.006912213740458029,0.06631679389312967,-0.013667938931296142,0.004934814453124971,-0.0010987548828124555,1.003959716796874
553,0.06798091603053424,-0.002385496183206215,-0.07473664122137236,0.00029614257812497075,0.0003660888671875445,1.004203857421874
554,-0.04652290076335874,-0.002385496183206215,-0.13580534351144868,-0.0026335449218750293,0.0006102294921875445,0.9998093261718739
555,0.022179389312976916,0.00524809160305334,0.0015992366412229675,-0.0006804199218750293,-0.0030518798828124555,0.9981003417968739
556,-0.04652290076335874,0.012881679389312867,-0.036568702290074695,0.0015168457031249707,0.00012194824218754452,1.002250732421874
557,-0.07705725190839696,0.04341603053435103,-0.09000381679389147,-0.004098388671875029,0.00012194824218754452,0.9954147949218739
558,-0.031255725190839856,-0.055820610687023015,0.11610305343511618,0.0022492675781249707,-0.0006104736328124555,0.9988327636718739
559,-0.02362213740458019,-0.03291984732824438,-0.036568702290074695,-0.0019011230468750293,-0.0006104736328124555,1.000541748046874
560,0.014545801526717472,0.06631679389312967,-0.12053816793892969,0.0005402832031249707,0.00012194824218754452,0.9968796386718739
561,-0.08469083969465663,0.0357824427480915,0.11610305343511618,0.0020051269531249707,0.0003660888671875445,0.9990769042968739
562,-0.0007213740458016371,0.02051526717557242,0.03976717557252085,0.005178955078124971,0.0015867919921875445,1.000785888671874
563,-0.0007213740458016371,0.04341603053435103,-0.0671030534351128,0.0005402832031249707,-0.0010987548828124555,1.000053466796874
564,-0.06179007633587785,0.08921755725190827,0.09320229007633762,-0.0019011230468750293,-0.0010987548828124555,0.9963913574218739
565,0.022179389312976916,-0.04818702290076346,0.024500000000001743,0.0007844238281249707,0.0010985107421875445,1.001274169921874
566,-0.13049236641221373,0.0357824427480915,0.009232824427482633,0.0020051269531249707,-0.0008546142578124555,1.001274169921874
567,0.006912213740458029,0.02051526717557242,0.009232824427482633,-0.0028776855468750293,-0.00012219238281245548,1.001274169921874
568,0.022179389312976916,-0.017652671755725297,0.0626679389312994,0.0015168457031249707,0.0030516357421875445,1.001518310546874
569,0.014545801526717472,-0.02528625954198485,-0.0671030534351128,-0.0023894042968750293,-0.0013428955078124555,0.9966354980468739
570,-0.0388893129770993,-0.04818702290076346,-0.05946946564885325,0.0007844238281249707,-0.0047608642578124555,1.000541748046874
571,-0.10759160305343518,0.1426526717557251,0.0015992366412229675,0.0020051269531249707,-0.0015870361328124555,1.000541748046874
572,-0.0007213740458016371,-0.002385496183206215,-0.036568702290074695,-0.00043627929687502925,-0.0010987548828124555,0.9939499511718739
573,-0.02362213740458019,0.05104961832061056,-0.08237022900763191,-0.0021452636718750293,0.00012194824218754452,0.9961472167968739
574,-0.05415648854961841,-0.0710877862595421,0.024500000000001743,-0.0014128417968750293,0.0025633544921875445,1.002006591796874
575,-0.0007213740458016371,0.09685114503816783,0.009232824427482633,5.2001953124970746e-05,-0.0010987548828124555,0.9956589355468739
576,0.052713740458015135,0.08158396946564878,0.03976717557252085,-0.0021452636718750293,-0.0018311767578124555,1.002739013671874
577,0.04508015267175569,-0.03291984732824438,-0.10527099236641058,0.0017609863281249707,0.0003660888671875445,1.002739013671874
578,0.02981297709923658,0.05104961832061056,-0.05946946564885325,0.0012727050781249707,0.0032957763671875445,1.005668701171874
579,-0.02362213740458019,-0.017652671755725297,0.05503435114503974,0.0037141113281249707,0.0052489013671875445,1.003471435546874
580,-0.05415648854961841,0.02051526717557242,-0.0671030534351128,-0.0006804199218750293,-0.0037843017578124555,1.001274169921874
581,-0.04652290076335874,-0.04818702290076346,0.009232824427482633,-0.0019011230468750293,-0.0006104736328124555,0.9983444824218739
582,0.07561450381679391,-0.002385496183206215,-0.02893511450381514,0.0007844238281249707,0.0003660888671875445,1.000053466796874
583,-0.05415648854961841,-0.017652671755725297,0.0626679389312994,0.0022492675781249707,0.0006102294921875445,0.9998093261718739
584,0.06798091603053424,-0.03291984732824438,0.1313702290076353,0.0010285644531249707,-0.0028077392578124555,0.9956589355468739
585,0.07561450381679391,0.02051526717557242,0.047400763358780296,0.0015168457031249707,0.0008543701171875445,0.9993210449218739
586,0.07561450381679391,0.0357824427480915,0.08556870229007796,-0.0026335449218750293,0.0018309326171875445,0.9985886230468739
587,0.0603473282442748,-0.04055343511450393,0.07030152671755885,-0.00019213867187502925,0.0013426513671875445,0.9998093261718739
588,0.014545801526717472,-0.010019083969465742,0.03976717557252085,-0.0006804199218750293,-0.0010987548828124555,0.9963913574218739
589,0.014545801526717472,-0.017652671755725297,0.024500000000001743,0.00029614257812497075,0.0010985107421875445,0.9973679199218739
590,0.014545801526717472,-0.010019083969465742,-0.051835877862593804,0.0037141113281249707,-0.00012219238281245548,0.9971237792968739
591,0.014545801526717472,0.07395038167938922,-0.04420229007633425,0.0017609863281249707,-0.0040284423828124555,0.9963913574218739
592,-0.04652290076335874,0.05104961832061056,0.047400763358780296,0.00029614257812497075,0.0006102294921875445,1.001030029296874
593,-0.02362213740458019,-0.0710877862595421,-0.006034351145036476,-0.0009245605468750293,-0.0006104736328124555,1.001762451171874
594,0.037446564885496025,-0.10162213740458026,-0.051835877862593804,-0.004830810546875029,0.0018309326171875445,0.9949265136718739
595,-0.07705725190839696,0.06631679389312967,-0.021301526717555586,0.0010285644531249707,0.00012194824218754452,1.001030029296874
596,-0.00835496183206108,0.08158396946564878,-0.09763740458015102,-0.0021452636718750293,0.0008543701171875445,0.9993210449218739
597,-0.06179007633587785,0.10448473282442738,0.016866412213742077,0.0007844238281249707,0.0040281982421875445,1.002250732421874
598,-0.06942366412213752,0.06631679389312967,-0.08237022900763191,0.0005402832031249707,0.0013426513671875445,0.9961472167968739
599,-0.07705725190839696,0.02814885496183195,-0.04420229007633425,0.00029614257812497075,-0.0020753173828124555,0.9959030761718739
600,0.11378244274809157,0.02051526717557242,-0.07473664122137236,0.0022492675781249707,0.0030516357421875445,1.004936279296874
601,-0.0388893129770993,-0.002385496183206215,-0.036568702290074695,0.0022492675781249707,0.0003660888671875445,0.9971237792968739
602,-0.015988549618320747,0.04341603053435103,0.047400763358780296,5.2001953124970746e-05,-0.0023194580078124555,0.9976120605468739
603,-0.00835496183206108,0.02814885496183195,-0.09763740458015102,0.0024934082031249707,0.0008543701171875445,0.9971237792968739
604,0.0908816793893128,-0.06345419847328254,-0.15870610687022735,-0.0016569824218750293,0.0003660888671875445,1.001762451171874
605,-0.031255725190839856,0.012881679389312867,-0.04420229007633425,-0.0014128417968750293,-0.0010987548828124555,0.9993210449218739
606,-0.05415648854961841,0.0357824427480915,-0.09763740458015102,0.0005402832031249707,-0.0059815673828124555,0.9983444824218739
607,0.006912213740458029,0.08158396946564878,0.03976717557252085,0.0034699707031249707,-0.0025635986328124555,0.9966354980468739
608,-0.14575954198473284,-0.03291984732824438,0.009232824427482633,5.2001953124970746e-05,-0.0020753173828124555,0.9932175292968739
609,0.08324809160305335,0.0357824427480915,-0.006034351145036476,-0.0014128417968750293,0.0010985107421875445,1.006889404296874
610,-0.02362213740458019,0.05868320610687011,0.016866412213742077,-0.006051513671875029,-0.0003663330078124555,0.9893112792968739
611,-0.04652290076335874,0.0357824427480915,-0.181606870229006,0.0005402832031249707,0.0008543701171875445,1.016166748046874
612,-0.12285877862595429,-0.16269083969465659,-0.07473664122137236,0.0010285644531249707,-0.0018311767578124555,1.000053466796874
613,0.04508015267175569,-0.055820610687023015,-0.07473664122137236,-0.0016569824218750293,0.0003660888671875445,1.002494873046874
614,0.04508015267175569,0.07395038167938922,-0.05946946564885325,-0.0036101074218750293,0.0028074951171875445,1.000541748046874
615,-0.05415648854961841,0.02051526717557242,-0.09000381679389147,0.0012727050781249707,0.0020750732421875445,0.9998093261718739
616,0.006912213740458029,-0.010019083969465742,-0.08237022900763191,5.2001953124970746e-05,0.0032957763671875445,0.9998093261718739
617,-0.00835496183206108,-0.04055343511450393,-0.12817175572518913,-0.0011687011718750293,-0.0003663330078124555,1.000053466796874
618,-0.02362213740458019,-0.002385496183206215,0.009232824427482633,0.0015168457031249707,-0.0062257080078124555,1.001030029296874
619,0.07561450381679391,0.0357824427480915,-0.09000381679389147,-0.0011687011718750293,0.0008543701171875445,0.9968796386718739
620,-0.031255725190839856,-0.0710877862595421,-0.12817175572518913,0.00029614257812497075,0.0003660888671875445,0.9949265136718739
621,0.006912213740458029,0.05104961832061056,-0.05946946564885325,0.004202392578124971,0.0010985107421875445,1.008598388671874
622,-0.00835496183206108,-0.02528625954198485,-0.08237022900763191,0.004934814453124971,-0.0010987548828124555,1.002983154296874
623,0.006912213740458029,0.05868320610687011,-0.05946946564885325,0.00029614257812497075,-0.0006104736328124555,1.002983154296874
624,0.06798091603053424,-0.08635496183206118,-0.04420229007633425,-0.0023894042968750293,0.0010985107421875445,0.9988327636718739
625,0.014545801526717472,0.012881679389312867,-0.0671030534351128,-0.0023894042968750293,-0.0010987548828124555,1.006889404296874
626,-0.06942366412213752,0.11975190839694644,-0.0671030534351128,-0.00019213867187502925,0.00012194824218754452,1.000785888671874
627,0.006912213740458029,0.05104961832061056,-0.09000381679389147,-0.0026335449218750293,0.0032957763671875445,0.9946823730468739
628,0.052713740458015135,-0.002385496183206215,-0.11290458015267013,0.006155517578124971,-0.0006104736328124555,0.9983444824218739
629,-0.02362213740458019,0.00524809160305334,-0.02893511450381514,0.00029614257812497075,-0.0003663330078124555,1.001762451171874
630,-0.05415648854961841,-0.0710877862595421,-0.006034351145036476,-0.0006804199218750293,-0.0010987548828124555,1.002983154296874
631,-0.0388893129770993,-0.02528625954198485,0.10846946564885673,-0.0006804199218750293,-0.0030518798828124555,0.9900437011718739
632,0.0603473282442748,0.02051526717557242,0.009232824427482633,0.0007844238281249707,-0.0006104736328124555,0.9985886230468739
633,-0.04652290076335874,-0.04055343511450393,-0.04420229007633425,0.0007844238281249707,-0.0013428955078124555,1.003959716796874
634,-0.05415648854961841,-0.010019083969465742,-0.006034351145036476,-0.0021452636718750293,0.0020750732421875445,1.002739013671874
635,0.06798091603053424,0.07395038167938922,-0.013667938931296142,-0.00043627929687502925,-0.00012219238281245548,0.9995651855468739
636,-0.0388893129770993,-0.017652671755725297,-0.0671030534351128,0.0010285644531249707,0.0015867919921875445,0.9971237792968739
637,0.04508015267175569,-0.002385496183206215,-0.08237022900763191,-0.00019213867187502925,0.00012194824218754452,0.9971237792968739
638,0.08324809160305335,-0.07872137404580164,-0.02893511450381514,0.005423095703124971,-0.0020753173828124555,1.002494873046874
639,0.014545801526717472,0.1426526717557251,-0.036568702290074695,0.0020051269531249707,-0.0013428955078124555,0.9946823730468739
640,-0.07705725190839696,0.07395038167938922,-0.14343893129770824,-0.0016569824218750293,-0.0032960205078124555,1.002250732421874
641,0.014545801526717472,0.00524809160305334,-0.05946946564885325,0.0017609863281249707,-0.0010987548828124555,1.007621826171874
642,0.0603473282442748,-0.055820610687023015,0.009232824427482633,0.0007844238281249707,-0.0013428955078124555,0.9968796386718739
643,-0.0007213740458016371,-0.0710877862595421,0.009232824427482633,0.0005402832031249707,-0.0003663330078124555,0.9981003417968739
644,0.006912213740458029,0.00524809160305334,-0.0671030534351128,0.0037141113281249707,0.0006102294921875445,0.9988327636718739
645,0.0603473282442748,-0.04818702290076346,-0.051835877862593804,0.0012727050781249707,0.0037840576171875445,0.9988327636718739
646,-0.04652290076335874,-0.03291984732824438,0.009232824427482633,0.0017609863281249707,-0.0006104736328124555,0.9956589355468739
647,0.0603473282442748,-0.06345419847328254,-0.12053816793892969,0.0015168457031249707,0.0028074951171875445,0.9990769042968739
648,0.037446564885496025,0.02051526717557242,-0.05946946564885325,0.0017609863281249707,-0.0008546142578124555,0.9993210449218739
649,0.037446564885496025,0.07395038167938922,-0.0671030534351128,0.0017609863281249707,0.0032957763671875445,1.001274169921874
650,0.006912213740458029,0.00524809160305334,0.016866412213742077,-0.0019011230468750293,-0.0020753173828124555,1.002983154296874
651,0.02981297709923658,-0.07872137404580164,-0.04420229007633425,0.0037141113281249707,0.0020750732421875445,0.9993210449218739
652,-0.0007213740458016371,-0.04055343511450393,-0.013667938931296142,-0.00019213867187502925,0.0018309326171875445,0.9993210449218739
653,0.1061488549618319,-0.07872137404580164,0.047400763358780296,0.00029614257812497075,0.0020750732421875445,1.000785888671874
654,-0.0007213740458016371,-0.010019083969465742,0.03976717557252085,-0.00019213867187502925,0.0020750732421875445,0.9990769042968739
655,0.037446564885496025,0.08921755725190827,-0.07473664122137236,0.0032258300781249707,-0.0040284423828124555,0.9988327636718739
656,0.04508015267175569,-0.07872137404580164,-0.036568702290074695,0.0012727050781249707,-0.0025635986328124555,1.003715576171874
657,0.08324809160305335,0.00524809160305334,0.0015992366412229675,0.0027375488281249707,-0.0020753173828124555,1.000297607421874
658,-0.0388893129770993,0.00524809160305334,0.0015992366412229675,0.0034699707031249707,-0.0030518798828124555,0.9966354980468739
659,-0.0388893129770993,0.02051526717557242,0.0015992366412229675,-0.00019213867187502925,0.0010985107421875445,1.000785888671874
660,0.006912213740458029,-0.017652671755725297,0.047400763358780296,0.005178955078124971,-0.0006104736328124555,0.9963913574218739
661,-0.00835496183206108,0.05868320610687011,0.009232824427482633,-0.0021452636718750293,0.0015867919921875445,1.001030029296874
662,0.052713740458015135,0.10448473282442738,0.11610305343511618,-0.0023894042968750293,0.0025633544921875445,0.9995651855468739
663,0.04508015267175569,-0.04818702290076346,-0.021301526717555586,-0.0019011230468750293,0.0008543701171875445,0.9985886230468739
664,0.11378244274809157,-0.055820610687023015,0.03976717557252085,-0.00019213867187502925,0.00012194824218754452,1.006645263671874
665,0.04508015267175569,-0.12452290076335888,0.047400763358780296,-0.0036101074218750293,-0.0008546142578124555,0.9966354980468739
666,-0.0388893129770993,-0.017652671755725297,0.024500000000001743,0.0007844238281249707,-0.0015870361328124555,0.9956589355468739
667,0.04508015267175569,-0.010019083969465742,-0.08237022900763191,0.0015168457031249707,-0.0010987548828124555,0.9993210449218739
668,0.037446564885496025,-0.03291984732824438,-0.12053816793892969,0.0007844238281249707,-0.0010987548828124555,0.9966354980468739
669,0.014545801526717472,0.0357824427480915,0.024500000000001743,0.0027375488281249707,-0.00012219238281245548,1.006889404296874
670,0.006912213740458029,-0.04055343511450393,-0.021301526717555586,-0.004830810546875029,0.0006102294921875445,1.002250732421874
671,-0.07705725190839696,-0.04055343511450393,-0.07473664122137236,-0.0006804199218750293,-0.0037843017578124555,0.9963913574218739
672,0.04508015267175569,-0.010019083969465742,0.03976717557252085,-0.0031218261718750293,0.0003660888671875445,1.002739013671874
673,-0.06942366412213752,-0.04818702290076346,0.024500000000001743,0.0007844238281249707,0.0025633544921875445,0.9995651855468739
674,0.037446564885496025,0.02051526717557242,-0.07473664122137236,-0.00043627929687502925,0.0023192138671875445,0.9963913574218739
675,-0.07705725190839696,0.012881679389312867,-0.02893511450381514,0.0027375488281249707,0.00012194824218754452,1.000297607421874
676,0.07561450381679391,-0.03291984732824438,-0.11290458015267013,-0.0021452636718750293,0.0008543701171875445,1.003959716796874
677,0.04508015267175569,-0.02528625954198485,-0.036568702290074695,0.0007844238281249707,-0.0018311767578124555,0.9983444824218739
678,-0.00835496183206108,-0.04818702290076346,-0.02893511450381514,0.0022492675781249707,-0.0020753173828124555,0.9973679199218739
679,0.02981297709923658,0.02051526717557242,0.009232824427482633,-0.0009245605468750293,0.0032957763671875445,1.000541748046874
680,-0.09232442748091607,-0.04818702290076346,0.1313702290076353,0.0027375488281249707,0.0032957763671875445,0.9966354980468739
681,-0.04652290076335874,0.012881679389312867,0.032133587786261186,0.0005402832031249707,-0.0020753173828124555,1.000785888671874
682,-0.02362213740458019,0.02814885496183195,-0.021301526717555586,0.0027375488281249707,-0.0018311767578124555,1.000297607421874
683,0.0603473282442748,-0.06345419847328254,-0.07473664122137236,-0.0028776855468750293,0.0018309326171875445,1.002494873046874
684,-0.05415648854961841,-0.03291984732824438,-0.02893511450381514,-0.0016569824218750293,-0.0015870361328124555,1.002983154296874
685,0.02981297709923658,-0.002385496183206215,-0.036568702290074695,0.0027375488281249707,0.0032957763671875445,0.9993210449218739
686,-0.16866030534351162,0.02814885496183195,-0.05946946564885325,-0.0019011230468750293,-0.0013428955078124555,1.004936279296874
687,0.09851526717557246,-0.017652671755725297,-0.09000381679389147,0.007132080078124971,-0.0010987548828124555,0.9981003417968739
688,0.014545801526717472,0.02814885496183195,-0.021301526717555586,0.0007844238281249707,0.0008543701171875445,0.9998093261718739
689,0.006912213740458029,-0.0710877862595421,-0.051835877862593804,-0.0019011230468750293,0.0008543701171875445,1.002250732421874
690,-0.02362213740458019,0.02814885496183195,-0.013667938931296142,-0.0011687011718750293,0.0023192138671875445,1.004692138671874
691,0.0603473282442748,-0.0710877862595421,-0.0671030534351128,0.0034699707031249707,0.0006102294921875445,0.9971237792968739
692,-0.08469083969465663,0.00524809160305334,-0.006034351145036476,0.0022492675781249707,0.0023192138671875445,0.9937058105468739
693,-0.07705725190839696,-0.055820610687023015,-0.08237022900763191,-0.00019213867187502925,0.0025633544921875445,0.9985886230468739
694,-0.06942366412213752,0.0357824427480915,-0.181606870229006,-0.0011687011718750293,-0.0006104736328124555,1.004692138671874
695,-0.02362213740458019,0.02814885496183195,0.03976717557252085,-0.0028776855468750293,0.0010985107421875445,0.9946823730468739
696,-0.0007213740458016371,-0.02528625954198485,0.0015992366412229675,5.2001953124970746e-05,0.0020750732421875445,1.001030029296874
697,-0.04652290076335874,-0.04055343511450393,-0.021301526717555586,0.0005402832031249707,-0.0013428955078124555,1.002983154296874
698,0.006912213740458029,-0.010019083969465742,0.03976717557252085,-0.0019011230468750293,-0.0010987548828124555,1.004936279296874
699,0.014545801526717472,-0.02528625954198485,-0.036568702290074695,0.0005402832031249707,0.00012194824218754452,0.9988327636718739
700,-0.02362213740458019,-0.002385496183206215,-0.006034351145036476,0.0010285644531249707,0.0037840576171875445,1.004203857421874
701,-0.06179007633587785,0.04341603053435103,-0.05946946564885325,-0.0006804199218750293,0.0003660888671875445,0.9990769042968739
702,-0.06942366412213752,0.04341603053435103,-0.05946946564885325,-0.00019213867187502925,0.0076903076171875445,0.9880905761718739
703,-0.031255725190839856,-0.06345419847328254,0.032133587786261186,0.0010285644531249707,-0.0003663330078124555,1.003715576171874
704,0.022179389312976916,0.05868320610687011,0.12373664122137562,-0.0031218261718750293,-0.0032960205078124555,0.9951706542968739
705,0.04508015267175569,-0.1092557251908398,-0.021301526717555586,-0.004830810546875029,0.0006102294921875445,1.002006591796874
706,0.04508015267175569,0.02814885496183195,0.07030152671755885,-0.0009245605468750293,0.0035399169921875445,1.001762451171874
707,-0.0007213740458016371,0.012881679389312867,-0.04420229007633425,0.0015168457031249707,-0.0028077392578124555,1.000297607421874
708,-0.06942366412213752,0.04341603053435103,0.047400763358780296,-0.0011687011718750293,-0.0008546142578124555,0.9973679199218739
709,0.014545801526717472,-0.17795801526717567,0.10083587786259707,-0.0028776855468750293,0.0010985107421875445,1.002739013671874
710,-0.0007213740458016371,-0.010019083969465742,-0.05946946564885325,-0.00019213867187502925,0.0015867919921875445,0.9976120605468739
711,-0.05415648854961841,0.0357824427480915,0.07030152671755885,0.00029614257812497075,-0.0008546142578124555,1.005180419921874
712,-0.02362213740458019,-0.04818702290076346,0.0015992366412229675,-0.0028776855468750293,0.0015867919921875445,1.000785888671874
713,-0.06179007633587785,-0.002385496183206215,0.032133587786261186,5.2001953124970746e-05,-0.0006104736328124555,1.000297607421874
714,-0.02362213740458019,0.0357824427480915,-0.04420229007633425,0.0034699707031249707,-0.0006104736328124555,0.9959030761718739
715,0.052713740458015135,-0.010019083969465742,0.047400763358780296,0.0005402832031249707,-0.0008546142578124555,1.003471435546874
716,0.037446564885496025,0.06631679389312967,-0.006034351145036476,-0.00019213867187502925,-0.0037843017578124555,1.001274169921874
717,0.022179389312976916,0.012881679389312867,0.024500000000001743,0.0024934082031249707,0.0042723388671875445,0.9981003417968739
718,-0.015988549618320747,-0.010019083969465742,-0.07473664122137236,-0.00043627929687502925,-0.0040284423828124555,1.002983154296874
719,0.02981297709923658,-0.1092557251908398,0.016866412213742077,0.00029614257812497075,-0.0015870361328124555,1.004203857421874
720,0.06798091603053424,0.04341603053435103,-0.0671030534351128,-0.0016569824218750293,-0.0028077392578124555,0.9995651855468739
721,-0.0007213740458016371,-0.002385496183206215,-0.02893511450381514,0.0017609863281249707,0.0010985107421875445,0.9946823730468739
722,-0.031255725190839856,-0.010019083969465742,-0.0671030534351128,-0.005319091796875029,-0.0025635986328124555,1.000297607421874
723,0.014545801526717472,0.02051526717557242,-0.006034351145036476,-0.0031218261718750293,0.0037840576171875445,1.000053466796874
724,0.15958396946564868,-0.017652671755725297,-0.07473664122137236,0.0027375488281249707,0.0037840576171875445,0.9885788574218739
725,0.022179389312976916,-0.04818702290076346,0.03976717557252085,-0.0026335449218750293,-0.0020753173828124555,1.005180419921874
726,0.052713740458015135,-0.12452290076335888,0.047400763358780296,0.0012727050781249707,-0.00012219238281245548,0.9985886230468739
727,-0.031255725190839856,-0.07872137404580164,-0.013667938931296142,0.0024934082031249707,0.0042723388671875445,0.9956589355468739
728,-0.07705725190839696,-0.06345419847328254,-0.02893511450381514,0.0005402832031249707,0.0003660888671875445,1.002739013671874
729,-0.0388893129770993,-0.08635496183206118,-0.10527099236641058,-0.0016569824218750293,-0.0018311767578124555,1.000785888671874
730,-0.015988549618320747,-0.06345419847328254,-0.08237022900763191,0.0015168457031249707,-0.0042725830078124555,1.001274169921874
731,-0.031255725190839856,0.02051526717557242,-0.036568702290074695,0.0007844238281249707,-0.0010987548828124555,1.004936279296874
732,-0.02362213740458019,0.012881679389312867,-0.051835877862593804,-0.0026335449218750293,0.0035399169921875445,1.000297607421874
733,0.037446564885496025,-0.07872137404580164,0.0626679389312994,0.00029614257812497075,-0.0028077392578124555,0.9927292480468739
734,-0.08469083969465663,-0.017652671755725297,0.07030152671755885,-0.0009245605468750293,0.0010985107421875445,1.009330810546874
735,-0.015988549618320747,0.11211832061068694,-0.051835877862593804,-0.00019213867187502925,-0.0025635986328124555,1.002250732421874
736,0.006912213740458029,0.012881679389312867,-0.013667938931296142,0.005178955078124971,-0.00012219238281245548,1.003471435546874
737,-0.0007213740458016371,-0.02528625954198485,-0.051835877862593804,0.0012727050781249707,0.0025633544921875445,0.9976120605468739
738,0.014545801526717472,-0.02528625954198485,-0.02893511450381514,-0.0006804199218750293,0.00012194824218754452,1.005180419921874
739,-0.05415648854961841,-0.13215648854961842,0.016866412213742077,0.0034699707031249707,0.0020750732421875445,0.9995651855468739
740,0.052713740458015135,0.00524809160305334,0.024500000000001743,0.0010285644531249707,-0.0042725830078124555,1.002739013671874
741,0.022179389312976916,0.04341603053435103,-0.02893511450381514,-0.0023894042968750293,-0.0010987548828124555,0.9993210449218739
742,0.014545801526717472,0.05868320610687011,-0.006034351145036476,-0.0014128417968750293,-0.0015870361328124555,1.002006591796874
743,-0.00835496183206108,-0.002385496183206215,-0.07473664122137236,0.0015168457031249707,0.0025633544921875445,0.9973679199218739
744,0.08324809160305335,0.11211832061068694,0.032133587786261186,-0.00019213867187502925,0.0010985107421875445,0.9978562011718739
745,0.022179389312976916,-0.002385496183206215,0.08556870229007796,0.0020051269531249707,-0.0042725830078124555,1.002006591796874
746,-0.0388893129770993,-0.03291984732824438,0.09320229007633762,-0.0019011230468750293,-0.0008546142578124555,1.000541748046874
747,-0.09232442748091607,-0.03291984732824438,0.10846946564885673,0.0010285644531249707,-0.0008546142578124555,1.003471435546874
748,-0.06942366412213752,0.02814885496183195,0.047400763358780296,0.0007844238281249707,0.0018309326171875445,1.000053466796874
749,0.014545801526717472,-0.010019083969465742,0.0015992366412229675,-0.0021452636718750293,0.0003660888671875445,0.9998093261718739
750,-0.00835496183206108,-0.010019083969465742,0.10083587786259707,-0.0021452636718750293,-0.0023194580078124555,0.9990769042968739
751,0.022179389312976916,-0.055820610687023015,0.016866412213742077,-0.0009245605468750293,0.0010985107421875445,0.9983444824218739
752,0.04508015267175569,0.02051526717557242,-0.12817175572518913,-0.0028776855468750293,-0.0013428955078124555,0.9971237792968739
753,0.09851526717557246,-0.02528625954198485,-0.12053816793892969,0.0022492675781249707,-0.0023194580078124555,0.9963913574218739
754,0.006912213740458029,-0.055820610687023015,-0.02893511450381514,0.00029614257812497075,0.0013426513671875445,0.9951706542968739
755,-0.09995801526717574,0.00524809160305334,-0.051835877862593804,0.0010285644531249707,0.0030516357421875445,1.005668701171874
756,0.037446564885496025,-0.06345419847328254,0.032133587786261186,0.0007844238281249707,-0.0015870361328124555,1.016655029296874
757,0.02981297709923658,0.02814885496183195,0.047400763358780296,0.0022492675781249707,-0.0023194580078124555,0.9971237792968739
758,0.04508015267175569,0.0357824427480915,-0.08237022900763191,0.0020051269531249707,0.00012194824218754452,1.004203857421874
759,-0.02362213740458019,-0.017652671755725297,0.047400763358780296,0.0012727050781249707,-0.0013428955078124555,0.9963913574218739
760,0.0908816793893128,-0.02528625954198485,-0.10527099236641058,0.0022492675781249707,0.0010985107421875445,1.002739013671874
761,-0.05415648854961841,0.04341603053435103,0.0015992366412229675,-0.00019213867187502925,0.0057371826171875445,1.002006591796874
762,-0.06942366412213752,0.00524809160305334,0.016866412213742077,0.0012727050781249707,0.0025633544921875445,0.9954147949218739
763,0.02981297709923658,-0.10162213740458026,0.024500000000001743,0.0020051269531249707,0.0010985107421875445,0.9961472167968739
764,-0.05415648854961841,0.00524809160305334,0.05503435114503974,0.00029614257812497075,0.0003660888671875445,0.9954147949218739
765,-0.13049236641221373,0.02051526717557242,-0.006034351145036476,0.0032258300781249707,-0.0042725830078124555,0.9988327636718739
766,0.014545801526717472,0.0357824427480915,-0.051835877862593804,0.006155517578124971,0.00012194824218754452,0.9954147949218739
767,0.0603473282442748,-0.055820610687023015,-0.04420229007633425,0.0015168457031249707,0.0023192138671875445,0.9983444824218739
768,-0.06942366412213752,0.04341603053435103,0.07030152671755885,-0.0021452636718750293,-0.0006104736328124555,0.9976120605468739
769,-0.0388893129770993,-0.04055343511450393,0.07030152671755885,0.0007844238281249707,-0.0030518798828124555,0.9959030761718739
770,0.0603473282442748,-0.017652671755725297,-0.0671030534351128,-0.0023894042968750293,-0.0032960205078124555,1.001274169921874
771,-0.0007213740458016371,-0.06345419847328254,-0.021301526717555586,-0.0009245605468750293,0.0006102294921875445,0.9981003417968739
772,-0.04652290076335874,0.05868320610687011,-0.05946946564885325,-0.0021452636718750293,-0.0010987548828124555,1.001274169921874
773,-0.04652290076335874,-0.03291984732824438,-0.07473664122137236,-0.0014128417968750293,0.0028074951171875445,1.002739013671874
774,0.014545801526717472,0.012881679389312867,-0.013667938931296142,-0.0023894042968750293,-0.0006104736328124555,1.005180419921874
775,0.037446564885496025,0.06631679389312967,-0.02893511450381514,-0.0021452636718750293,0.0023192138671875445,0.9990769042968739
776,0.052713740458015135,-0.010019083969465742,-0.006034351145036476,0.0012727050781249707,-0.0028077392578124555,1.002250732421874
777,-0.0007213740458016371,-0.002385496183206215,0.009232824427482633,-0.0011687011718750293,0.0008543701171875445,0.9998093261718739
778,-0.031255725190839856,-0.04818702290076346,0.08556870229007796,0.0034699707031249707,0.0006102294921875445,1.000297607421874
779,0.09851526717557246,-0.02528625954198485,0.032133587786261186,5.2001953124970746e-05,-0.0006104736328124555,1.008598388671874
780,0.037446564885496025,0.05104961832061056,0.032133587786261186,-0.0009245605468750293,0.0006102294921875445,1.003227294921874
781,-0.04652290076335874,-0.017652671755725297,0.016866412213742077,-0.0021452636718750293,0.0018309326171875445,1.001030029296874
782,0.04508015267175569,-0.017652671755725297,-0.036568702290074695,0.0012727050781249707,0.0008543701171875445,1.003959716796874
783,-0.015988549618320747,0.012881679389312867,-0.006034351145036476,0.004202392578124971,0.0013426513671875445,1.004692138671874
784,-0.0388893129770993,0.0357824427480915,-0.04420229007633425,-0.00043627929687502925,0.0030516357421875445,0.9915085449218739
785,0.09851526717557246,0.02051526717557242,0.03976717557252085,0.0015168457031249707,-0.0003663330078124555,1.004447998046874
786,0.07561450381679391,-0.04818702290076346,-0.036568702290074695,0.0020051269531249707,-0.0013428955078124555,1.000297607421874
787,0.006912213740458029,0.0357824427480915,-0.08237022900763191,0.00932934570312497,-0.0010987548828124555,0.9932175292968739
788,0.08324809160305335,-0.03291984732824438,0.1619045801526735,-0.0026335449218750293,-0.0003663330078124555,0.9985886230468739
789,0.014545801526717472,-0.04055343511450393,-0.0671030534351128,0.003958251953124971,0.0015867919921875445,0.9956589355468739
790,0.052713740458015135,0.00524809160305334,0.032133587786261186,0.004690673828124971,0.0032957763671875445,1.002739013671874
791,-0.07705725190839696,0.0357824427480915,-0.006034351145036476,-0.004830810546875029,0.0035399169921875445,1.001762451171874
792,0.06798091603053424,0.012881679389312867,0.009232824427482633,0.0024934082031249707,0.0008543701171875445,1.003471435546874
793,-0.031255725190839856,0.07395038167938922,0.032133587786261186,0.0024934082031249707,0.0028074951171875445,0.9959030761718739
794,-0.0388893129770993,-0.04818702290076346,0.047400763358780296,-0.00043627929687502925,0.0010985107421875445,1.002739013671874
795,-0.00835496183206108,0.02814885496183195,0.047400763358780296,5.2001953124970746e-05,0.0013426513671875445,0.9966354980468739
796,0.006912213740458029,0.0357824427480915,0.024500000000001743,0.0017609863281249707,0.0015867919921875445,1.002739013671874
797,-0.0007213740458016371,0.04341603053435103,0.047400763358780296,-0.00019213867187502925,-0.0045167236328124555,1.003227294921874
798,-0.0388893129770993,-0.03291984732824438,0.09320229007633762,0.0010285644531249707,0.0020750732421875445,0.9924851074218739
799,-0.08469083969465663,-0.0710877862595421,-0.051835877862593804,0.0010285644531249707,0.0015867919921875445,1.000541748046874
800,-0.031255725190839856,0.012881679389312867,-0.04420229007633425,0.0010285644531249707,0.0003660888671875445,0.9988327636718739
801,0.037446564885496025,-0.04055343511450393,-0.013667938931296142,0.00029614257812497075,-0.0010987548828124555,1.002983154296874
802,0.037446564885496025,-0.055820610687023015,-0.013667938931296142,0.0005402832031249707,-0.00012219238281245548,1.014946044921874
803,0.006912213740458029,-0.055820610687023015,-0.021301526717555586,-0.0009245605468750293,-0.0010987548828124555,1.002494873046874
804,0.052713740458015135,-0.04818702290076346,-0.036568702290074695,0.0007844238281249707,0.0020750732421875445,0.9968796386718739
805,-0.031255725190839856,-0.002385496183206215,-0.006034351145036476,0.0012727050781249707,0.0030516357421875445,0.9978562011718739
806,-0.00835496183206108,0.012881679389312867,0.0015992366412229675,-0.004830810546875029,-0.0006104736328124555,0.9998093261718739
807,-0.06179007633587785,-0.002385496183206215,0.12373664122137562,-0.0016569824218750293,0.0045164794921875445,0.9995651855468739
808,0.13668320610687013,0.02814885496183195,0.032133587786261186,0.0015168457031249707,-0.0023194580078124555,1.002739013671874
809,-0.031255725190839856,-0.07872137404580164,-0.04420229007633425,0.0015168457031249707,0.0013426513671875445,1.002983154296874
810,0.006912213740458029,-0.07872137404580164,-0.07473664122137236,0.00029614257812497075,0.0003660888671875445,1.003715576171874
811,0.08324809160305335,-0.02528625954198485,0.032133587786261186,0.0012727050781249707,-0.0003663330078124555,1.001274169921874
812,0.006912213740458029,0.02814885496183195,0.13900381679389473,0.0012727050781249707,-0.0006104736328124555,1.000785888671874
813,0.006912213740458029,-0.03291984732824438,0.10083587786259707,-0.0011687011718750293,0.0037840576171875445,1.000297607421874
814,0.014545801526717472,0.08158396946564878,0.009232824427482633,-0.00043627929687502925,-0.0006104736328124555,1.002983154296874
815,-0.02362213740458019,0.00524809160305334,-0.006034351145036476,0.0012727050781249707,0.0020750732421875445,1.000541748046874
816,0.04508015267175569,-0.04055343511450393,0.08556870229007796,5.2001953124970746e-05,0.0018309326171875445,0.9981003417968739
817,0.037446564885496025,-0.002385496183206215,0.07030152671755885,0.0020051269531249707,-0.0025635986328124555,0.9922409667968739
818,0.006912213740458029,-0.04818702290076346,0.05503435114503974,-0.0014128417968750293,0.0020750732421875445,1.001274169921874
819,0.052713740458015135,0.05104961832061056,-0.013667938931296142,0.0017609863281249707,0.0013426513671875445,0.9963913574218739
820,-0.04652290076335874,0.08921755725190827,-0.04420229007633425,0.0007844238281249707,0.0008543701171875445,1.004447998046874
821,0.006912213740458029,-0.002385496183206215,0.12373664122137562,-0.00019213867187502925,0.0006102294921875445,1.016166748046874
822,-0.05415648854961841,-0.002385496183206215,-0.006034351145036476,0.0032258300781249707,-0.0018311767578124555,1.002006591796874
823,-0.12285877862595429,0.04341603053435103,0.024500000000001743,0.0007844238281249707,-0.0013428955078124555,0.9995651855468739
824,0.037446564885496025,-0.02528625954198485,-0.02893511450381514,-0.0019011230468750293,0.0047606201171875445,1.000053466796874
825,0.09851526717557246,0.02051526717557242,0.047400763358780296,-0.0021452636718750293,-0.0040284423828124555,1.001030029296874
826,-0.06179007633587785,0.00524809160305334,0.07030152671755885,0.0010285644531249707,-0.0008546142578124555,0.9961472167968739
827,-0.0007213740458016371,-0.04818702290076346,0.10083587786259707,-0.00043627929687502925,-0.0018311767578124555,0.9985886230468739
828,-0.0007213740458016371,-0.16269083969465659,0.10083587786259707,-0.0023894042968750293,-0.0013428955078124555,1.001518310546874
829,0.006912213740458029,-0.010019083969465742,-0.013667938931296142,-0.0011687011718750293,-0.0008546142578124555,1.001274169921874
830,0.06798091603053424,0.05868320610687011,0.12373664122137562,0.0034699707031249707,-0.0047608642578124555,0.9995651855468739
831,0.037446564885496025,-0.017652671755725297,0.016866412213742077,0.0017609863281249707,0.0042723388671875445,0.9988327636718739
832,0.0603473282442748,-0.002385496183206215,0.07793511450381851,-0.004098388671875029,-0.0008546142578124555,1.000053466796874
833,-0.00835496183206108,-0.02528625954198485,-0.051835877862593804,0.0007844238281249707,-0.0025635986328124555,1.002739013671874
834,-0.031255725190839856,-0.06345419847328254,-0.021301526717555586,-0.00019213867187502925,-0.0013428955078124555,1.002983154296874
835,-0.06942366412213752,0.0357824427480915,0.05503435114503974,0.0015168457031249707,-0.0045167236328124555,0.9995651855468739
836,0.006912213740458029,0.02814885496183195,-0.04420229007633425,-0.0033659667968750293,-0.0003663330078124555,0.9978562011718739
837,0.12141603053435102,0.012881679389312867,-0.04420229007633425,-0.0009245605468750293,0.0010985107421875445,1.006889404296874
838,0.04508015267175569,-0.04818702290076346,0.032133587786261186,-0.0033659667968750293,0.0010985107421875445,0.9985886230468739
839,0.014545801526717472,-0.010019083969465742,-0.02893511450381514,0.0012727050781249707,0.0006102294921875445,0.9988327636718739
840,0.09851526717557246,0.04341603053435103,0.03976717557252085,0.0024934082031249707,-0.0018311767578124555,0.9976120605468739
841,-0.00835496183206108,-0.010019083969465742,0.09320229007633762,-0.00019213867187502925,0.00012194824218754452,0.9951706542968739
842,-0.00835496183206108,0.02814885496183195,0.0626679389312994,0.0032258300781249707,0.0006102294921875445,1.004447998046874
843,0.052713740458015135,0.02051526717557242,-0.02893511450381514,-0.0011687011718750293,-0.0030518798828124555,0.9961472167968739
844,0.022179389312976916,-0.03291984732824438,-0.013667938931296142,0.007376220703124971,-0.0023194580078124555,1.003715576171874
845,0.006912213740458029,0.04341603053435103,0.07030152671755885,0.0024934082031249707,-0.0006104736328124555,0.9976120605468739
846,-0.0388893129770993,0.05868320610687011,0.016866412213742077,-0.0016569824218750293,-0.0003663330078124555,0.9981003417968739
847,-0.00835496183206108,0.04341603053435103,-0.08237022900763191,0.0010285644531249707,0.0028074951171875445,0.9912644042968739
848,0.006912213740458029,-0.002385496183206215,0.016866412213742077,-0.00019213867187502925,0.0018309326171875445,0.9939499511718739
849,-0.0007213740458016371,0.04341603053435103,-0.013667938931296142,-0.00043627929687502925,-0.0008546142578124555,0.9998093261718739
850,-0.0388893129770993,-0.06345419847328254,0.032133587786261186,-0.0006804199218750293,0.0003660888671875445,0.9973679199218739
851,0.12141603053435102,0.17318702290076327,-0.013667938931296142,0.0022492675781249707,-0.0006104736328124555,0.9990769042968739
852,-0.0388893129770993,0.02814885496183195,0.009232824427482633,-0.0006804199218750293,-0.0032960205078124555,0.9956589355468739
853,0.08324809160305335,0.02051526717557242,-0.07473664122137236,-0.0011687011718750293,0.0023192138671875445,0.9983444824218739
854,-0.00835496183206108,0.02051526717557242,-0.05946946564885325,-0.0009245605468750293,-0.0006104736328124555,1.000053466796874
855,0.006912213740458029,-0.010019083969465742,0.12373664122137562,-0.00019213867187502925,-0.0003663330078124555,1.002250732421874
856,0.0603473282442748,-0.0710877862595421,0.0626679389312994,0.0029816894531249707,-0.0028077392578124555,0.9959030761718739
857,0.006912213740458029,0.06631679389312967,0.047400763358780296,-0.00043627929687502925,0.0020750732421875445,1.014457763671874
858,0.04508015267175569,-0.055820610687023015,0.016866412213742077,-0.0023894042968750293,-0.0003663330078124555,0.9993210449218739
859,-0.00835496183206108,-0.04818702290076346,0.009232824427482633,0.0017609863281249707,0.0013426513671875445,0.9983444824218739
860,0.0908816793893128,0.11975190839694644,-0.0671030534351128,-0.0016569824218750293,0.0018309326171875445,1.002739013671874
861,-0.05415648854961841,0.02051526717557242,0.032133587786261186,0.0007844238281249707,0.0008543701171875445,0.9961472167968739
862,0.037446564885496025,0.02051526717557242,0.032133587786261186,-0.0019011230468750293,0.0028074951171875445,0.9995651855468739
863,-0.0007213740458016371,-0.010019083969465742,0.016866412213742077,-0.00019213867187502925,-0.0010987548828124555,0.9976120605468739
864,-0.00835496183206108,0.02051526717557242,-0.09763740458015102,0.0005402832031249707,-0.0020753173828124555,0.9983444824218739
865,0.0908816793893128,0.04341603053435103,0.10846946564885673,-0.00043627929687502925,0.0023192138671875445,0.9961472167968739
866,0.09851526717557246,0.05104961832061056,-0.006034351145036476,0.0005402832031249707,-0.0008546142578124555,0.9978562011718739
867,-0.00835496183206108,0.0357824427480915,0.009232824427482633,0.003958251953124971,-0.0015870361328124555,0.9973679199218739
868,-0.031255725190839856,-0.04055343511450393,-0.0671030534351128,0.0029816894531249707,0.0003660888671875445,0.9990769042968739
869,0.07561450381679391,0.0357824427480915,0.07030152671755885,-0.00019213867187502925,-0.0006104736328124555,1.001762451171874
870,-0.031255725190839856,-0.04818702290076346,0.03976717557252085,0.00029614257812497075,-0.0015870361328124555,1.000053466796874
871,-0.02362213740458019,0.08921755725190827,0.0626679389312994,-0.0023894042968750293,0.00012194824218754452,0.9959030761718739
872,-0.031255725190839856,-0.010019083969465742,-0.1510725190839678,-0.0014128417968750293,0.0015867919921875445,0.9956589355468739
873,-0.0007213740458016371,-0.08635496183206118,0.09320229007633762,0.0015168457031249707,0.0006102294921875445,0.9993210449218739
874,0.06798091603053424,0.02814885496183195,0.024500000000001743,0.0020051269531249707,0.0013426513671875445,0.9954147949218739
875,0.1061488549618319,-0.04055343511450393,0.07030152671755885,0.0024934082031249707,-0.0032960205078124555,1.001762451171874
876,0.0908816793893128,-0.017652671755725297,0.10083587786259707,0.00029614257812497075,0.0028074951171875445,1.001030029296874
877,0.04508015267175569,-0.010019083969465742,0.07793511450381851,-0.0009245605468750293,-0.0020753173828124555,1.000053466796874
878,-0.00835496183206108,0.07395038167938922,-0.08237022900763191,0.0027375488281249707,-0.0008546142578124555,0.9941940917968739
879,0.052713740458015135,-0.0710877862595421,-0.021301526717555586,0.0015168457031249707,0.0010985107421875445,1.007133544921874
880,-0.02362213740458019,-0.017652671755725297,-0.051835877862593804,0.0007844238281249707,-0.0010987548828124555,1.002250732421874
881,0.022179389312976916,0.02051526717557242,-0.10527099236641058,-0.0021452636718750293,0.0003660888671875445,1.003471435546874
882,0.04508015267175569,-0.017652671755725297,-0.08237022900763191,-0.0011687011718750293,-0.0013428955078124555,1.001762451171874
883,-0.04652290076335874,0.02814885496183195,0.047400763358780296,0.0024934082031249707,0.0025633544921875445,0.9998093261718739
884,0.11378244274809157,0.02051526717557242,-0.051835877862593804,0.0007844238281249707,0.0028074951171875445,0.9983444824218739
885,-0.09995801526717574,-0.002385496183206215,-0.021301526717555586,0.0015168457031249707,-0.0018311767578124555,0.9924851074218739
886,-0.06942366412213752,-0.04055343511450393,0.09320229007633762,-0.00043627929687502925,0.0003660888671875445,1.001518310546874
887,0.037446564885496025,-0.055820610687023015,0.08556870229007796,-0.0023894042968750293,0.0040281982421875445,1.002739013671874
888,0.02981297709923658,-0.09398854961832072,0.016866412213742077,0.0015168457031249707,-0.00012219238281245548,0.9988327636718739
889,-0.0388893129770993,-0.010019083969465742,0.1313702290076353,5.2001953124970746e-05,-0.00012219238281245548,1.001518310546874
890,-0.04652290076335874,0.00524809160305334,-0.09000381679389147,-0.00043627929687502925,-0.0032960205078124555,0.9995651855468739
891,-0.08469083969465663,0.02814885496183195,0.016866412213742077,-0.00019213867187502925,0.0008543701171875445,0.9976120605468739
892,-0.00835496183206108,0.08158396946564878,-0.05946946564885325,0.0020051269531249707,0.0013426513671875445,1.000785888671874
893,0.022179389312976916,-0.07872137404580164,0.05503435114503974,0.004202392578124971,0.0006102294921875445,1.002250732421874
894,-0.00835496183206108,0.00524809160305334,0.0015992366412229675,0.0037141113281249707,-0.0023194580078124555,0.9983444824218739
895,0.022179389312976916,-0.02528625954198485,-0.10527099236641058,0.0017609863281249707,-0.0010987548828124555,0.9985886230468739
896,0.006912213740458029,0.04341603053435103,-0.006034351145036476,0.0012727050781249707,0.0042723388671875445,1.001518310546874
897,-0.04652290076335874,-0.04055343511450393,-0.02893511450381514,-0.0009245605468750293,-0.0037843017578124555,1.002494873046874
898,-0.0007213740458016371,-0.02528625954198485,0.047400763358780296,0.0034699707031249707,0.0010985107421875445,1.002983154296874
899,0.04508015267175569,0.02051526717557242,0.016866412213742077,-0.00019213867187502925,-0.0013428955078124555,1.002006591796874
900,-0.05415648854961841,-0.002385496183206215,0.047400763358780296,-0.0021452636718750293,-0.0015870361328124555,0.9985886230468739
901,0.052713740458015135,0.05104961832061056,-0.08237022900763191,-0.00043627929687502925,0.0006102294921875445,1.004936279296874
902,0.09851526717557246,-0.08635496183206118,-0.036568702290074695,0.0020051269531249707,-0.0008546142578124555,1.000053466796874
903,0.022179389312976916,-0.055820610687023015,0.07030152671755885,-0.0019011230468750293,0.0010985107421875445,1.013969482421874
904,0.0603473282442748,0.06631679389312967,-0.021301526717555586,0.0024934082031249707,0.0020750732421875445,1.000541748046874
905,0.0603473282442748,0.08921755725190827,-0.05946946564885325,-0.0028776855468750293,-0.0006104736328124555,0.9983444824218739
906,-0.031255725190839856,-0.08635496183206118,-0.051835877862593804,0.0017609863281249707,0.0015867919921875445,0.9944382324218739
907,-0.04652290076335874,-0.02528625954198485,0.009232824427482633,0.004690673828124971,-0.0020753173828124555,0.9995651855468739
908,0.014545801526717472,0.08921755725190827,-0.10527099236641058,-0.00019213867187502925,-0.0006104736328124555,0.9998093261718739
909,0.02981297709923658,-0.010019083969465742,0.024500000000001743,0.0027375488281249707,-0.0018311767578124555,0.9983444824218739
910,-0.04652290076335874,-0.03291984732824438,0.0626679389312994,0.004934814453124971,0.0028074951171875445,0.9998093261718739
911,0.09851526717557246,0.00524809160305334,0.07030152671755885,0.0005402832031249707,0.0040281982421875445,0.9990769042968739
912,-0.06942366412213752,0.04341603053435103,0.0015992366412229675,-0.0016569824218750293,0.0006102294921875445,1.001762451171874
913,-0.0007213740458016371,0.00524809160305334,-0.006034351145036476,-0.0038542480468750293,0.0018309326171875445,0.9990769042968739
914,-0.0388893129770993,-0.04818702290076346,0.0015992366412229675,0.0007844238281249707,0.0023192138671875445,1.002006591796874
915,0.02981297709923658,-0.04818702290076346,0.016866412213742077,-0.00019213867187502925,0.0020750732421875445,0.9985886230468739
916,0.08324809160305335,0.00524809160305334,-0.036568702290074695,0.0037141113281249707,-0.0008546142578124555,0.9998093261718739
